"","Category","Response","Participant","Trial","List","RT","Inv_RT","Invk_RT","zscore_per_pt","SM_term","ProdFreq","LgSUBTLWF","Sensorimotor","Linguistic","PLD","NSyll","Category.RT","Category.RT.secs"
"1","academic subject","economics",64,28,3,3.817,0.261985853,261.9858528,0.45875,"economics",7,2.1,0.029600113,0.270800474,3.65,4,1340.09,0.596
"2","academic subject","maths",46,13,3,2.229,0.448631673,448.6316734,-0.39679,"math",12,0.9,0.086525228,0.272870123,NA,1,1340.09,0.596
"3","academic subject","sociology",80,19,3,2.444,0.409165303,409.1653028,0.00882,"sociology",13,1.36,0.026793905,0.520240714,4.15,5,1340.09,0.596
"4","academic subject","english language",25,24,3,5.623,0.17784101,177.8410101,1.79701,"english language",7,NA,NA,0.186139714,6,4,1340.09,0.596
"5","academic subject","english",37,25,3,2.611,0.382995021,382.9950211,-0.58938,"english",9,3.58,NA,0.246499358,2.9,2,1340.09,0.596
"6","academic subject","linguistics",49,21,3,3.861,0.259000259,259.000259,0.37019,"linguistics",3,1.42,0.198167351,0.610936098,4.4,3,1340.09,0.596
"7","academic subject","english",52,26,3,3.005,0.332778702,332.7787022,-0.33513,"english",9,3.58,NA,0.246499358,2.9,2,1340.09,0.596
"8","academic subject","geography",40,2,3,1.737,0.575705239,575.7052389,-0.6721,"geography",13,2.07,0.123856554,0.285390636,3.45,4,1340.09,0.596
"9","academic subject","law",67,8,3,1.866,0.535905681,535.9056806,-0.473,"law",7,3.77,0.029690331,0.224022642,1,1,1340.09,0.596
"10","academic subject","psychology",76,10,3,1.578,0.633713561,633.7135615,-0.95762,"psychology",18,2.45,0.045783366,0.320664156,3.25,4,1340.09,0.596
"11","academic subject","maths",31,27,3,2.953,0.338638673,338.6386725,-0.1231,"math",12,0.9,0.086525228,0.272870123,NA,1,1340.09,0.596
"12","academic subject","maths",28,21,3,2.124,0.470809793,470.8097928,-0.66451,"math",12,0.9,0.086525228,0.272870123,NA,1,1340.09,0.596
"13","academic subject","geography",61,2,3,3.489,0.286615076,286.615076,0.08394,"geography",13,2.07,0.123856554,0.285390636,3.45,4,1340.09,0.596
"14","academic subject","maths",22,38,3,1.63,0.613496933,613.4969325,-0.46124,"math",12,0.9,0.086525228,0.272870123,NA,1,1340.09,0.596
"15","academic subject","geography",55,27,3,2.085,0.479616307,479.616307,-0.73761,"geography",13,2.07,0.123856554,0.285390636,3.45,4,1340.09,0.596
"16","academic subject","maths",70,36,3,2.084,0.479846449,479.8464491,-0.34334,"math",12,0.9,0.086525228,0.272870123,NA,1,1340.09,0.596
"17","academic subject","maths",19,33,3,3.422,0.292226768,292.226768,-0.00396,"math",12,0.9,0.086525228,0.272870123,NA,1,1340.09,0.596
"18","academic subject","linguistics",58,23,3,2.086,0.479386385,479.3863854,-0.36974,"linguistics",3,1.42,0.198167351,0.610936098,4.4,3,1340.09,0.596
"19","academic subject","biology",79,15,3,1.907,0.524383849,524.383849,-0.733,"biology",14,2.4,0.105161108,0.34467194,2.85,4,1340.09,0.596
"20","alcoholic drink","vodka",69,6,2,3.634,0.275178866,275.1788663,0.16201,"vodka",20,2.71,0.015696843,0.293000495,2.85,2,1230.3,1.12562
"21","alcoholic drink","beer",60,36,2,5.762,0.17355085,173.5508504,0.52946,"beer",16,3.59,0.023546358,0.205360961,1,1,1230.3,1.12562
"22","alcoholic drink","vodka",18,15,2,5.11,0.195694716,195.6947162,0.23085,"vodka",20,2.71,0.015696843,0.293000495,2.85,2,1230.3,1.12562
"23","alcoholic drink","vodka",45,23,2,1.926,0.5192108,519.2107996,-0.87924,"vodka",20,2.71,0.015696843,0.293000495,2.85,2,1230.3,1.12562
"24","alcoholic drink","bacardi",39,20,2,4.286,0.233317779,233.3177788,0.42231,"bacardi",2,NA,NA,0.54946549,NA,NA,1230.3,1.12562
"25","alcoholic drink","vodka",51,3,2,2.653,0.376931775,376.9317753,-0.17034,"vodka",20,2.71,0.015696843,0.293000495,2.85,2,1230.3,1.12562
"26","alcoholic drink","vodka",30,23,2,2.315,0.431965443,431.9654428,-0.35904,"vodka",20,2.71,0.015696843,0.293000495,2.85,2,1230.3,1.12562
"27","alcoholic drink","vodka",63,6,2,1.857,0.538502962,538.5029618,-0.70225,"vodka",20,2.71,0.015696843,0.293000495,2.85,2,1230.3,1.12562
"28","alcoholic drink","beer",78,28,2,3.177,0.314762354,314.7623544,-0.30355,"beer",16,3.59,0.023546358,0.205360961,1,1,1230.3,1.12562
"29","alcoholic drink","beer",21,38,2,4.397,0.227427792,227.4277917,0.31178,"beer",16,3.59,0.023546358,0.205360961,1,1,1230.3,1.12562
"30","alcoholic drink","vodka",72,14,2,2.238,0.446827525,446.8275246,-0.47004,"vodka",20,2.71,0.015696843,0.293000495,2.85,2,1230.3,1.12562
"31","alcoholic drink","beer",75,34,2,2.138,0.467726848,467.7268475,-0.28423,"beer",16,3.59,0.023546358,0.205360961,1,1,1230.3,1.12562
"32","alcoholic drink","whiskey",54,18,2,3.314,0.301750151,301.7501509,-0.4055,"whiskey",12,2.92,0.026253757,0.35474257,2.15,2,1230.3,1.12562
"33","alcoholic drink","beer",33,35,2,4.124,0.242483026,242.4830262,-0.35899,"beer",16,3.59,0.023546358,0.205360961,1,1,1230.3,1.12562
"34","alcoholic drink","red wine",24,37,2,4.815,0.20768432,207.6843198,-0.15472,"wine",7,4.028411461,0.024540561,0.203968861,2,2,1230.3,1.12562
"35","alcoholic drink","vodka",36,29,2,2.488,0.40192926,401.9292605,-0.35031,"vodka",20,2.71,0.015696843,0.293000495,2.85,2,1230.3,1.12562
"36","alcoholic drink","beer",42,25,2,1.696,0.589622642,589.6226415,-0.65126,"beer",16,3.59,0.023546358,0.205360961,1,1,1230.3,1.12562
"37","alcoholic drink","malibu",48,29,2,2.838,0.352360817,352.3608175,0.40472,"malibu",4,NA,NA,0.524889561,NA,NA,1230.3,1.12562
"38","alcoholic drink","gin",27,36,2,3.499,0.285795942,285.7959417,-0.29082,"gin",13,2.76,0.02933657,0.292208792,1.3,1,1230.3,1.12562
"39","alcoholic drink","vodka",57,2,2,2.078,0.481231954,481.2319538,-0.71755,"vodka",20,2.71,0.015696843,0.293000495,2.85,2,1230.3,1.12562
"40","animal","tiger",45,4,2,3.222,0.310366232,310.3662322,-0.45326,"tiger",10,2.98,0.084399539,0.292877476,1.55,2,619.88,0.61988
"41","animal","cow",54,38,2,2.908,0.343878955,343.8789546,-0.53153,"cow",10,3.11,0.033576105,0.302174336,1,1,619.88,0.61988
"42","animal","dog",75,37,2,1.715,0.583090379,583.090379,-0.37543,"dog",19,3.99,0.01342987,0.227552054,1.45,1,619.88,0.61988
"43","animal","tiger",27,30,2,2.123,0.471031559,471.0315591,-0.67206,"tiger",10,2.98,0.084399539,0.292877476,1.55,2,619.88,0.61988
"44","animal","dog",33,19,2,7.297,0.13704262,137.0426203,0.30748,"dog",19,3.99,0.01342987,0.227552054,1.45,1,619.88,0.61988
"45","animal","hamster",78,39,2,6.466,0.154655119,154.6551191,1.81117,"hamster",7,2.04,0.061309438,0.453650652,2.3,2,619.88,0.61988
"46","animal","penguin",30,20,2,2.719,0.367782273,367.7822729,-0.18207,"penguin",4,2.17,0.08908419,0.392998845,3.65,2,619.88,0.61988
"47","animal","dog",72,15,2,1.998,0.500500501,500.5005005,-0.5573,"dog",19,3.99,0.01342987,0.227552054,1.45,1,619.88,0.61988
"48","animal","dog",69,4,2,1.892,0.528541226,528.5412262,-0.62874,"dog",19,3.99,0.01342987,0.227552054,1.45,1,619.88,0.61988
"49","animal","cat",57,29,2,1.845,0.54200542,542.0054201,-0.88176,"cat",20,3.53,0.014312986,0.252291192,1,1,619.88,0.61988
"50","animal","cat",39,28,2,2.793,0.358037952,358.037952,-0.17557,"cat",20,3.53,0.014312986,0.252291192,1,1,619.88,0.61988
"51","animal","giraffe",21,19,2,3.656,0.273522976,273.5229759,-0.12382,"giraffe",13,1.887,0.112070275,0.397125475,2.95,2,619.88,0.61988
"52","animal","cat",18,19,2,3.431,0.291460216,291.4602157,-0.33775,"cat",20,3.53,0.014312986,0.252291192,1,1,619.88,0.61988
"53","animal","ant",42,28,2,3.151,0.317359568,317.3595684,0.78078,"ant",2,2.44,0.110434098,0.375889333,1.2,1,619.88,0.61988
"54","animal","cow",51,11,2,2.381,0.4199916,419.9916002,-0.32356,"cow",10,3.11,0.033576105,0.302174336,1,1,619.88,0.61988
"55","animal","leopard",63,3,2,1.968,0.508130081,508.1300813,-0.64281,"leopard",5,2.44,0.10314843,0.386409642,1.6,2,619.88,0.61988
"56","animal","pig",48,12,2,2.051,0.48756704,487.5670405,-0.40788,"pig",9,3.3,0.074949882,0.295696991,1,1,619.88,0.61988
"57","animal","cat",60,7,2,2.274,0.439753738,439.7537379,-0.78661,"cat",20,3.53,0.014312986,0.252291192,1,1,619.88,0.61988
"58","art form","painting",17,15,1,3.474,0.287852619,287.8526195,-0.21703,"painting",14,3.17,0.038649779,0.210622484,1.85,2,1125.62,1.12562
"59","art form","painting",59,10,1,3.476,0.287686997,287.6869965,-0.36433,"painting",14,3.17,0.038649779,0.210622484,1.85,2,1125.62,1.12562
"60","art form","music",53,7,1,2.29,0.436681223,436.6812227,-0.39707,"music",7,3.89,0.327353543,0.203729641,2.05,2,1125.62,1.12562
"61","art form","painting",62,35,1,3.867,0.258598397,258.5983967,0.07326,"painting",14,3.17,0.038649779,0.210622484,1.85,2,1125.62,1.12562
"62","art form","painting",68,39,1,3.038,0.329163924,329.1639236,-0.64655,"painting",14,3.17,0.038649779,0.210622484,1.85,2,1125.62,1.12562
"63","art form","painting",38,13,1,3.958,0.252652855,252.652855,0.79018,"painting",14,3.17,0.038649779,0.210622484,1.85,2,1125.62,1.12562
"64","art form","painting",47,13,1,3.945,0.253485425,253.4854246,0.0116,"painting",14,3.17,0.038649779,0.210622484,1.85,2,1125.62,1.12562
"65","art form","painting",56,22,1,2.078,0.481231954,481.2319538,-0.2455,"painting",14,3.17,0.038649779,0.210622484,1.85,2,1125.62,1.12562
"66","art form","dance",32,12,1,2.626,0.380807312,380.8073115,0.03711,"dance",7,3.88,0.189712053,0.244296361,1.6,1,1125.62,1.12562
"67","art form","painting",65,2,1,2.596,0.385208012,385.2080123,-0.49522,"painting",14,3.17,0.038649779,0.210622484,1.85,2,1125.62,1.12562
"68","art form","music",35,16,1,2.551,0.392003136,392.003136,-0.26066,"music",7,3.89,0.327353543,0.203729641,2.05,2,1125.62,1.12562
"69","art form","painting",20,30,1,2.351,0.425350915,425.3509145,-0.27632,"painting",14,3.17,0.038649779,0.210622484,1.85,2,1125.62,1.12562
"70","art form","painting",23,14,1,3.287,0.30422878,304.22878,1.48209,"painting",14,3.17,0.038649779,0.210622484,1.85,2,1125.62,1.12562
"71","art form","painting",77,19,1,3.238,0.308832613,308.8326127,0.13355,"painting",14,3.17,0.038649779,0.210622484,1.85,2,1125.62,1.12562
"72","art form","singing",71,32,1,5.758,0.173671414,173.6714137,1.87326,"singing",3,3.36,0.404448368,0.270539154,1.45,2,1125.62,1.12562
"73","art form","drawing",50,8,1,4.02,0.248756219,248.7562189,-0.04703,"drawing",9,2.91,0.047187092,0.248268024,1.9,2,1125.62,1.12562
"74","artistic movement","dance",51,23,2,4.723,0.211729833,211.7298327,0.99569,"dance",3,3.88,0.0468386,0.275738821,1.6,1,1368.7,1.1697
"75","artistic movement","dance",72,6,2,10.674,0.093685591,93.68559116,2.597,"dance",3,3.88,0.0468386,0.275738821,1.6,1,1368.7,1.1697
"76","artistic movement","cubism",18,24,2,3.573,0.279876854,279.8768542,-0.28966,"cubism",4,0.85,0.267779632,0.521484663,3.35,3,1368.7,1.1697
"77","artistic movement","modern art",78,30,2,6.896,0.145011601,145.0116009,2.08765,"modern art",2,NA,NA,0.194173528,3.9,3,1368.7,1.1697
"78","artistic movement","dance",39,6,2,8.402,0.119019281,119.0192811,2.0706,"dance",3,3.88,0.0468386,0.275738821,1.6,1,1368.7,1.1697
"79","artistic movement","realism",69,23,2,11.758,0.085048478,85.04847763,3.84976,"realism",2,1.57,0.090418542,0.411287513,3.25,3,1368.7,1.1697
"80","bathroom fixture","toilet roll holder",36,4,2,2.412,0.414593698,414.5936982,-0.40251,"toilet roll holder",4,NA,NA,0.187695947,4.8,5,1169.7,1.12562
"81","bathroom fixture","toilet",78,5,2,4.371,0.228780599,228.7805994,0.46416,"toilet",13,3.17,0.065695444,0.212269394,2.15,2,1169.7,1.12562
"82","bathroom fixture","toilet",33,18,2,9.124,0.109601052,109.6010522,0.69124,"toilet",13,3.17,0.065695444,0.212269394,2.15,2,1169.7,1.12562
"83","bathroom fixture","mirror",45,13,2,9.173,0.109015589,109.0155892,1.50279,"mirror",9,3.091,0.113947596,0.274761181,1.8,1,1169.7,1.12562
"84","bathroom fixture","toilet roll holder",54,29,2,3.843,0.260213375,260.213375,-0.24129,"toilet roll holder",4,NA,NA,0.187695947,4.8,5,1169.7,1.12562
"85","bathroom fixture","bath",21,20,2,4.169,0.239865675,239.8656752,0.17775,"bath",11,3.2,0.069801829,0.229610217,1,1,1169.7,1.12562
"86","bathroom fixture","shower",30,22,2,2.752,0.363372093,363.372093,-0.16762,"shower",14,3.32,0.115147029,0.193933869,1.25,1,1169.7,1.12562
"87","bathroom fixture","sink",39,1,2,2.089,0.478697942,478.6979416,-0.45749,"sink",13,2.94,0.044649198,0.24307793,1,1,1169.7,1.12562
"88","bathroom fixture","sink",18,21,2,3.021,0.33101622,331.0162198,-0.4766,"sink",13,2.94,0.044649198,0.24307793,1,1,1169.7,1.12562
"89","bathroom fixture","sink",75,6,2,2.278,0.438981563,438.9815628,-0.25405,"sink",13,2.94,0.044649198,0.24307793,1,1,1169.7,1.12562
"90","bathroom fixture","sink",69,12,2,2.552,0.39184953,391.8495298,-0.32915,"sink",13,2.94,0.044649198,0.24307793,1,1,1169.7,1.12562
"91","bathroom fixture","tap",72,17,2,2.385,0.419287212,419.2872117,-0.4166,"tap",4,2.88,0.178449622,0.292944488,1,1,1169.7,1.12562
"92","bathroom fixture","toilet",60,30,2,4.309,0.232072407,232.0724066,-0.01878,"toilet",13,3.17,0.065695444,0.212269394,2.15,2,1169.7,1.12562
"93","bathroom fixture","toilet",42,24,2,2.589,0.386249517,386.2495172,0.22765,"toilet",13,3.17,0.065695444,0.212269394,2.15,2,1169.7,1.12562
"94","bathroom fixture","bathtub",57,15,2,5.68,0.176056338,176.056338,1.821,"bathtub",5,2.49,0.035534032,0.42896089,3.6,2,1169.7,1.12562
"95","bird","pigeon",19,26,3,2.47,0.4048583,404.8582996,-0.3961,"pigeon",13,2.48,0.035882968,0.351507525,2.4,2,596,0.61988
"96","bird","starling",61,36,3,2.683,0.372717108,372.7171077,-0.31477,"starling",2,NA,NA,0.54738537,1.75,2,596,0.61988
"97","bird","hummingbird",67,13,3,1.56,0.641025641,641.025641,-0.60121,"hummingbird",2,1.51,0.024374849,0.557419518,4.75,3,596,0.61988
"98","bird","bluebird",49,28,3,2.143,0.466635558,466.6355576,-0.38587,"bluebird",7,1.6,0.020761691,0.474988999,3.35,2,596,0.61988
"99","bird","eagle",46,25,3,1.911,0.523286238,523.2862376,-0.49071,"eagle",7,2.77,0.031534644,0.324270352,1.7,2,596,0.61988
"100","bird","owl",79,9,3,2.872,0.348189415,348.189415,-0.37242,"owl",7,2.46,0.023909751,0.324695729,1.15,1,596,0.61988
"101","bird","ostrich",80,8,3,1.983,0.504286435,504.2864347,-0.45336,"ostrich",4,1.69,0.045184326,0.429933472,2.9,2,596,0.61988
"102","bird","robin",31,31,3,2.879,0.347342827,347.3428274,-0.15126,"robin",8,3.1,0.035136225,0.314066377,1.8,2,596,0.61988
"103","bird","owl",22,13,3,1.44,0.694444444,694.4444444,-0.62793,"owl",7,2.46,0.023909751,0.324695729,1.15,1,596,0.61988
"104","bird","ostrich",64,34,3,2.937,0.340483487,340.4834866,-0.23311,"ostrich",4,1.69,0.045184326,0.429933472,2.9,2,596,0.61988
"105","bird","pigeon",37,28,3,3.68,0.27173913,271.7391304,-0.18421,"pigeon",13,2.48,0.035882968,0.351507525,2.4,2,596,0.61988
"106","bird","eagle",70,6,3,1.976,0.506072874,506.0728745,-0.37437,"eagle",7,2.77,0.031534644,0.324270352,1.7,2,596,0.61988
"107","bird","bluebird",52,35,3,4.162,0.240269101,240.2691014,0.55791,"bluebird",7,1.6,0.020761691,0.474988999,3.35,2,596,0.61988
"108","bird","eagle",40,34,3,3.969,0.251952633,251.9526329,0.39321,"eagle",7,2.77,0.031534644,0.324270352,1.7,2,596,0.61988
"109","bird","owl",43,36,3,6.857,0.145836372,145.8363716,0.91126,"owl",7,2.46,0.023909751,0.324695729,1.15,1,596,0.61988
"110","bird","blackbird",55,16,3,3.108,0.321750322,321.7503218,0.27878,"blackbird",8,1.63,0.029752173,0.499978627,3.25,2,596,0.61988
"111","bird","canary",58,3,3,2.954,0.338524035,338.5240352,0.47705,"canary",4,2.18,0.014310181,0.464639869,2.8,3,596,0.61988
"112","bird","bluebird",28,1,3,2.572,0.388802488,388.8024883,-0.35564,"bluebird",7,1.6,0.020761691,0.474988999,3.35,2,596,0.61988
"113","bird","bluebird",76,9,3,1.522,0.657030223,657.0302234,-1.01835,"bluebird",7,1.6,0.020761691,0.474988999,3.35,2,596,0.61988
"114","bird of prey","eagle",38,16,1,1.652,0.605326877,605.3268765,-0.5841,"eagle",18,2.77,0.0370991,0.273233462,1.7,2,1808.05,1.80805
"115","bird of prey","eagle",35,8,1,3.362,0.297441999,297.4419988,0.14567,"eagle",18,2.77,0.0370991,0.273233462,1.7,2,1808.05,1.80805
"116","bird of prey","eagle",50,14,1,9.206,0.10862481,108.6248099,2.0715,"eagle",18,2.77,0.0370991,0.273233462,1.7,2,1808.05,1.80805
"117","bird of prey","eagle",56,12,1,3.013,0.331895121,331.8951211,0.44787,"eagle",18,2.77,0.0370991,0.273233462,1.7,2,1808.05,1.80805
"118","bird of prey","eagle",65,31,1,3.259,0.30684259,306.8425898,-0.09065,"eagle",18,2.77,0.0370991,0.273233462,1.7,2,1808.05,1.80805
"119","bird of prey","eagle",74,7,1,1.722,0.580720093,580.7200929,-0.74194,"eagle",18,2.77,0.0370991,0.273233462,1.7,2,1808.05,1.80805
"120","bird of prey","eagle",26,24,1,2.242,0.44603033,446.0303301,-0.61821,"eagle",18,2.77,0.0370991,0.273233462,1.7,2,1808.05,1.80805
"121","bird of prey","eagle",23,23,1,2.01,0.497512438,497.5124378,-0.38672,"eagle",18,2.77,0.0370991,0.273233462,1.7,2,1808.05,1.80805
"122","bird of prey","eagle",20,31,1,3.395,0.29455081,294.55081,0.73461,"eagle",18,2.77,0.0370991,0.273233462,1.7,2,1808.05,1.80805
"123","bird of prey","eagle",32,33,1,1.725,0.579710145,579.7101449,-0.79585,"eagle",18,2.77,0.0370991,0.273233462,1.7,2,1808.05,1.80805
"124","bird of prey","eagle",44,30,1,5.678,0.176118352,176.1183515,0.11295,"eagle",18,2.77,0.0370991,0.273233462,1.7,2,1808.05,1.80805
"125","bird of prey","eagle",47,3,1,3.811,0.262398321,262.3983207,-0.07247,"eagle",18,2.77,0.0370991,0.273233462,1.7,2,1808.05,1.80805
"126","bird of prey","owl",62,10,1,3.152,0.317258883,317.2588832,-0.16841,"owl",10,2.46,0.070617659,0.277091886,1.15,1,1808.05,1.80805
"127","bird of prey","falcon",68,31,1,5.012,0.199521149,199.5211492,0.64598,"falcon",9,2.23,0.053082356,0.364619654,2.15,2,1808.05,1.80805
"128","bird of prey","buzzard",17,16,1,3.017,0.331455088,331.4550878,-0.39229,"buzzard",3,1.97,0.034469191,0.429994329,1.9,2,1808.05,1.80805
"129","boat","yacht",51,26,2,1.514,0.660501982,660.5019815,-0.81194,"yacht",8,2.62,0.096030432,0.346755978,1.25,1,549.78,0.61988
"130","boat","sailing",60,19,2,10.367,0.096459921,96.4599209,2.26699,"sailboat",8,2.68,0.057082618,0.274440323,1.2,2,549.78,0.61988
"131","boat","ferry",33,23,2,2.9,0.344827586,344.8275862,-0.61608,"ferry",8,2.44,0.042253106,0.311944727,1,2,549.78,0.61988
"132","boat","speedboat",78,29,2,2.679,0.37327361,373.2736096,-0.62374,"speedboat",6,1.45,0.023084995,0.542828853,3.7,2,549.78,0.61988
"133","boat","sailing",36,26,2,2.584,0.386996904,386.996904,-0.28438,"sailboat",8,2.68,0.057082618,0.274440323,1.2,2,549.78,0.61988
"134","boat","sailing",63,22,2,1.499,0.667111408,667.1114076,-0.89393,"sailboat",8,2.68,0.057082618,0.274440323,1.2,2,549.78,0.61988
"135","boat","yacht",39,34,2,3.998,0.250125063,250.1250625,0.30698,"yacht",8,2.62,0.096030432,0.346755978,1.25,1,549.78,0.61988
"136","boat","ship",57,30,2,4.841,0.206568891,206.5688907,1.22971,"ship",7,3.7,0.065492563,0.212551813,1,1,549.78,0.61988
"137","boat","sailing",48,34,2,4.898,0.204164965,204.1649653,2.53172,"sailboat",8,2.68,0.057082618,0.274440323,1.2,2,549.78,0.61988
"138","boat","ship",45,33,2,9.695,0.103145952,103.1459515,1.67437,"ship",7,3.7,0.065492563,0.212551813,1,1,549.78,0.61988
"139","boat","yacht",69,31,2,2.418,0.41356493,413.5649297,-0.38997,"yacht",8,2.62,0.096030432,0.346755978,1.25,1,549.78,0.61988
"140","boat","speedboat",18,38,2,3.935,0.254129606,254.1296061,-0.16707,"speedboat",6,1.45,0.023084995,0.542828853,3.7,2,549.78,0.61988
"141","boat","speedboat",21,4,2,3.508,0.285062714,285.0627138,-0.21082,"speedboat",6,1.45,0.023084995,0.542828853,3.7,2,549.78,0.61988
"142","boat","canoe",54,3,2,10.664,0.093773443,93.77344336,1.87602,"canoe",7,2.26,0.043181137,0.403642279,1.85,2,549.78,0.61988
"143","body of water","sea",72,36,2,1.708,0.585480094,585.4800937,-0.66274,"sea",15,3.48,0.080067633,0.177681111,1,1,1762.88,1.80805
"144","body of water","puddle",69,36,2,3.48,0.287356322,287.3563218,0.0921,"puddle",7,2,0.213826295,0.534171963,1.35,2,1762.88,1.80805
"145","body of water","sea",24,23,2,8.461,0.118189339,118.1893393,0.90351,"sea",15,3.48,0.080067633,0.177681111,1,1,1762.88,1.80805
"146","body of water","river",63,17,2,4.174,0.239578342,239.5783421,0.53837,"river",12,3.45,0.099304027,0.230637569,1.55,2,1762.88,1.80805
"147","body of water","river",60,10,2,5.576,0.179340029,179.3400287,0.45928,"river",12,3.45,0.099304027,0.230637569,1.55,2,1762.88,1.80805
"148","body of water","lake",39,29,2,2.207,0.453103761,453.1037608,-0.41024,"lake",13,3.26,0.085468487,0.295317837,1,1,1762.88,1.80805
"149","body of water","lake",75,20,2,2.128,0.469924812,469.924812,-0.28639,"lake",13,3.26,0.085468487,0.295317837,1,1,1762.88,1.80805
"150","body of water","ocean",33,32,2,4.004,0.24975025,249.7502498,-0.38419,"ocean",13,3.189,0.056467739,0.282572869,1.7,2,1762.88,1.80805
"151","body of water","ocean",54,27,2,7.114,0.140567894,140.5678943,0.77406,"ocean",13,3.189,0.056467739,0.282572869,1.7,2,1762.88,1.80805
"152","body of water","lake",78,13,2,2.112,0.473484848,473.4848485,-0.98831,"lake",13,3.26,0.085468487,0.295317837,1,1,1762.88,1.80805
"153","body of water","lake",30,38,2,1.553,0.643915003,643.9150032,-0.69282,"lake",13,3.26,0.085468487,0.295317837,1,1,1762.88,1.80805
"154","body of water","sea",51,27,2,2.38,0.420168067,420.1680672,-0.32412,"sea",15,3.48,0.080067633,0.177681111,1,1,1762.88,1.80805
"155","body of water","lake",42,21,2,1.628,0.614250614,614.2506143,-0.71819,"lake",13,3.26,0.085468487,0.295317837,1,1,1762.88,1.80805
"156","body of water","canal",21,17,2,3.704,0.269978402,269.9784017,-0.0956,"canal",4,2.51,0.152407739,0.356405744,2.25,2,1762.88,1.80805
"157","body of water","lake",36,32,2,2.507,0.398883127,398.8831272,-0.33726,"lake",13,3.26,0.085468487,0.295317837,1,1,1762.88,1.80805
"158","body of water","sea",48,13,2,1.568,0.637755102,637.755102,-0.90659,"sea",15,3.48,0.080067633,0.177681111,1,1,1762.88,1.80805
"159","book genre","fantasy",60,2,2,2.604,0.384024578,384.0245776,-0.6621,"fantasy",7,2.92,0.07923987,0.320869969,2.65,3,1318.88,1.12562
"160","book genre","fiction",42,18,2,1.814,0.551267916,551.2679162,-0.53512,"fiction",12,2.49,0.060694534,0.299150414,1.8,2,1318.88,1.12562
"161","book genre","fantasy",54,11,2,3.616,0.276548673,276.5486726,-0.31176,"fantasy",7,2.92,0.07923987,0.320869969,2.65,3,1318.88,1.12562
"162","book genre","horror",51,6,2,1.734,0.576701269,576.7012687,-0.68801,"horror",10,2.67,0.087667092,0.304029967,1.65,2,1318.88,1.12562
"163","book genre","crime",69,7,2,2.178,0.459136823,459.1368228,-0.49892,"crime",6,3.56,0.073803711,0.265961426,1.45,1,1318.88,1.12562
"164","book genre","science fiction",30,16,2,2.559,0.390777648,390.7776475,-0.25216,"science fiction",5,3.345273775,0.14582594,0.200667352,3.65,3,1318.88,1.12562
"165","book genre","novel",75,35,2,2.43,0.411522634,411.5226337,-0.22127,"novel",2,2.71,0.026382775,0.267888305,1.8,2,1318.88,1.12562
"166","book genre","romance",18,30,2,2.755,0.362976407,362.9764065,-0.56668,"romance",14,2.9,0.179171383,0.314897538,2.75,2,1318.88,1.12562
"167","book genre","horror",33,21,2,4.216,0.237191651,237.1916509,-0.33966,"horror",10,2.67,0.087667092,0.304029967,1.65,2,1318.88,1.12562
"168","book genre","fiction",21,10,2,3.538,0.282645562,282.6455625,-0.19319,"fiction",12,2.49,0.060694534,0.299150414,1.8,2,1318.88,1.12562
"169","book genre","horror",39,4,2,1.849,0.540832883,540.8328826,-0.5536,"horror",10,2.67,0.087667092,0.304029967,1.65,2,1318.88,1.12562
"170","book genre","romance",48,31,2,3.84,0.260416667,260.4166667,1.43931,"romance",14,2.9,0.179171383,0.314897538,2.75,2,1318.88,1.12562
"171","book genre","romance",27,33,2,2.805,0.356506239,356.5062389,-0.4831,"romance",14,2.9,0.179171383,0.314897538,2.75,2,1318.88,1.12562
"172","book genre","crime",36,18,2,3.035,0.329489292,329.4892916,0.02538,"crime",6,3.56,0.073803711,0.265961426,1.45,1,1318.88,1.12562
"173","book genre","horror",57,5,2,2.695,0.371057514,371.0575139,-0.28271,"horror",10,2.67,0.087667092,0.304029967,1.65,2,1318.88,1.12562
"174","book genre","horror",78,25,2,2.519,0.39698293,396.9829297,-0.72662,"horror",10,2.67,0.087667092,0.304029967,1.65,2,1318.88,1.12562
"175","book genre","horror",72,7,2,2.551,0.392003136,392.003136,-0.35625,"horror",10,2.67,0.087667092,0.304029967,1.65,2,1318.88,1.12562
"176","breed of dog","chihuahua",35,11,1,4.014,0.249128052,249.1280518,0.47234,"chihuahua",11,1.86,0.044173994,0.496115921,3.95,3,1823.16,0.596
"177","breed of dog","labrador",56,11,1,1.787,0.55959709,559.5970901,-0.4613,"labrador",15,1.45,0.022570462,0.448926585,3.85,3,1823.16,0.596
"178","breed of dog","labrador",59,28,1,3.543,0.282246684,282.2466836,-0.34366,"labrador",15,1.45,0.022570462,0.448926585,3.85,3,1823.16,0.596
"179","breed of dog","rottweiler",53,21,1,3.064,0.326370757,326.3707572,0.14652,"rottweiler",3,NA,NA,0.50390066,NA,NA,1823.16,0.596
"180","breed of dog","golden retriever",38,36,1,1.677,0.596302922,596.3029219,-0.5692,"golden retriever",11,3.084147874,0.010230929,0.257307313,5.45,5,1823.16,0.596
"181","breed of dog","chihuahua",26,12,1,3.596,0.278086763,278.0867631,0.00203,"chihuahua",11,1.86,0.044173994,0.496115921,3.95,3,1823.16,0.596
"182","breed of dog","labrador",71,9,1,2.6,0.384615385,384.6153846,-0.22193,"labrador",15,1.45,0.022570462,0.448926585,3.85,3,1823.16,0.596
"183","breed of dog","labrador",17,22,1,5.095,0.196270854,196.2708538,0.4046,"labrador",15,1.45,0.022570462,0.448926585,3.85,3,1823.16,0.596
"184","breed of dog","husky",47,26,1,3.173,0.315159155,315.1591554,-0.47271,"husky",6,1.91,0.044226583,0.526947831,1.8,2,1823.16,0.596
"185","breed of dog","border collie",29,9,1,2.285,0.437636761,437.6367615,-0.44029,"collie",4,2.96598525,0.020501963,0.274050346,2.45,4,1823.16,0.596
"186","breed of dog","labrador",32,13,1,2.424,0.412541254,412.5412541,-0.14963,"labrador",15,1.45,0.022570462,0.448926585,3.85,3,1823.16,0.596
"187","breed of dog","labrador",77,16,1,1.966,0.508646999,508.646999,-0.57914,"labrador",15,1.45,0.022570462,0.448926585,3.85,3,1823.16,0.596
"188","breed of dog","dalmatian",20,10,1,1.639,0.610128127,610.1281269,-0.96577,"dalmatian",7,1.58,0.038296097,0.576179694,2.85,3,1823.16,0.596
"189","breed of dog","beagle",74,10,1,1.742,0.574052813,574.0528129,-0.72262,"beagle",4,1.81,0.034758821,0.532999032,1.75,2,1823.16,0.596
"190","breed of dog","german shepherd",62,23,1,2.192,0.45620438,456.2043796,-0.49288,"german shepherd",9,NA,NA,0.229503521,4.15,4,1823.16,0.596
"191","breed of dog","dalmatian",65,23,1,3.26,0.306748466,306.7484663,-0.09004,"dalmatian",7,1.58,0.038296097,0.576179694,2.85,3,1823.16,0.596
"192","breed of dog","dalmatian",23,21,1,2.431,0.411353353,411.3533525,0.22939,"dalmatian",7,1.58,0.038296097,0.576179694,2.85,3,1823.16,0.596
"193","building","house",51,30,2,2.953,0.338638673,338.6386725,-0.00135,"house",12,4.42,0.028721133,0.191303602,1.65,1,633.97,0.61988
"194","building","house",30,28,2,2.851,0.350754121,350.7541214,-0.12425,"house",12,4.42,0.028721133,0.191303602,1.65,1,633.97,0.61988
"195","building","house",63,31,2,3.339,0.299490866,299.4908655,0.09128,"house",12,4.42,0.028721133,0.191303602,1.65,1,633.97,0.61988
"196","building","house",69,9,2,2.624,0.381097561,381.097561,-0.29646,"house",12,4.42,0.028721133,0.191303602,1.65,1,633.97,0.61988
"197","building","house",18,26,2,3.63,0.275482094,275.4820937,-0.27036,"house",12,4.42,0.028721133,0.191303602,1.65,1,633.97,0.61988
"198","building","office building",78,33,2,4.366,0.229042602,229.0426019,0.46094,"office",2,4.193121795,0.049307717,0.050530652,3.85,4,633.97,0.61988
"199","building","house",36,24,2,1.743,0.573723465,573.7234653,-0.86199,"house",12,4.42,0.028721133,0.191303602,1.65,1,633.97,0.61988
"200","building","house",39,11,2,1.964,0.509164969,509.1649695,-0.50755,"house",12,4.42,0.028721133,0.191303602,1.65,1,633.97,0.61988
"201","building","office building",75,28,2,8.708,0.114836932,114.8369316,1.13231,"office",2,4.193121795,0.049307717,0.050530652,3.85,4,633.97,0.61988
"202","building","cathedral",27,4,2,14.221,0.070318543,70.318543,2.67993,"cathedral",2,2.28,0.10760091,0.333730489,3.85,3,633.97,0.61988
"203","building","house",72,22,2,2.122,0.471253534,471.2535344,-0.51222,"house",12,4.42,0.028721133,0.191303602,1.65,1,633.97,0.61988
"204","building","flat",21,3,2,5.683,0.1759634,175.9633996,1.06775,"flat",5,3.13,0.037401734,0.235541302,1.2,1,633.97,0.61988
"205","building","houses",57,7,2,2.963,0.337495781,337.4957813,-0.09384,"house",2,2.99,0.028721133,0.200754447,2.5,2,633.97,0.61988
"206","building","flat",33,13,2,3.891,0.257003341,257.003341,-0.40793,"flat",5,3.13,0.037401734,0.235541302,1.2,1,633.97,0.61988
"207","building material","bricks",49,18,3,1.533,0.652315721,652.3157208,-0.65432,"brick",13,2.3,0.105324732,0.322654779,1.7,1,1239.03,1.1697
"208","building material","bricks",22,6,3,1.616,0.618811881,618.8118812,-0.47352,"brick",13,2.3,0.105324732,0.322654779,1.7,1,1239.03,1.1697
"209","building material","bricks",70,15,3,1.811,0.552181115,552.1811154,-0.42176,"brick",13,2.3,0.105324732,0.322654779,1.7,1,1239.03,1.1697
"210","building material","cement",64,9,3,3.934,0.254194204,254.1942044,0.55073,"cement",14,2.37,0.050692006,0.391380039,2,2,1239.03,1.1697
"211","building material","stones",40,25,3,2.661,0.375798572,375.798572,-0.23108,"stone",2,2.76,0.041073523,0.285288442,1.7,1,1239.03,1.1697
"212","building material","wood",67,21,3,1.806,0.553709856,553.709856,-0.49814,"wood",15,3.14,0.024402648,0.22070886,1.35,1,1239.03,1.1697
"213","building material","wood",61,23,3,3.624,0.27593819,275.9381898,0.15073,"wood",15,3.14,0.024402648,0.22070886,1.35,1,1239.03,1.1697
"214","building material","brick",55,18,3,2.057,0.486144871,486.1448712,-0.76543,"brick",5,2.72,0.105324732,0.299474522,1.15,1,1239.03,1.1697
"215","building material","metal",43,6,3,3.273,0.305530095,305.5300947,-0.43857,"metal",4,3,0.021062401,0.246521712,1.2,2,1239.03,1.1697
"216","building material","brick",52,24,3,4.283,0.233481205,233.4812048,0.65131,"brick",5,2.72,0.105324732,0.299474522,1.15,1,1239.03,1.1697
"217","building material","bricks",80,33,3,2.765,0.361663653,361.6636528,0.33063,"brick",13,2.3,0.105324732,0.322654779,1.7,1,1239.03,1.1697
"218","building material","bricks",31,7,3,2.631,0.380083618,380.0836184,-0.24563,"brick",13,2.3,0.105324732,0.322654779,1.7,1,1239.03,1.1697
"219","building material","brick",19,32,3,1.724,0.580046404,580.0464037,-0.70339,"brick",5,2.72,0.105324732,0.299474522,1.15,1,1239.03,1.1697
"220","building material","bricks",28,31,3,3.601,0.277700639,277.7006387,0.35382,"brick",13,2.3,0.105324732,0.322654779,1.7,1,1239.03,1.1697
"221","building material","bricks",25,3,3,3.516,0.284414107,284.4141069,0.32165,"brick",13,2.3,0.105324732,0.322654779,1.7,1,1239.03,1.1697
"222","building material","wood",79,12,3,2.401,0.416493128,416.4931279,-0.54841,"wood",15,3.14,0.024402648,0.22070886,1.35,1,1239.03,1.1697
"223","building material","concrete",76,17,3,2.795,0.357781753,357.7817531,0.36211,"concrete",8,2.58,0.052036566,0.26783685,2.95,2,1239.03,1.1697
"224","building material","brick",37,24,3,4.013,0.249190132,249.1901321,-0.058,"brick",5,2.72,0.105324732,0.299474522,1.15,1,1239.03,1.1697
"225","building material","bricks",58,39,3,2.327,0.42973786,429.7378599,-0.13463,"brick",13,2.3,0.105324732,0.322654779,1.7,1,1239.03,1.1697
"226","building material","brick",46,20,3,1.778,0.562429696,562.4296963,-0.52999,"brick",5,2.72,0.105324732,0.299474522,1.15,1,1239.03,1.1697
"227","camping equipment","sleeping bag",52,25,3,4.322,0.231374364,231.3743637,0.68141,"sleeping bag",13,3.892442603,0.064418245,0.211046278,2.65,3,1429.17,1.12562
"228","camping equipment","tent",55,31,3,2.184,0.457875458,457.8754579,-0.63925,"tent",18,2.95,0.084400323,0.24814935,1,1,1429.17,1.12562
"229","camping equipment","tent",28,29,3,1.863,0.536768653,536.7686527,-0.84446,"tent",18,2.95,0.084400323,0.24814935,1,1,1429.17,1.12562
"230","camping equipment","tent",70,8,3,1.519,0.658327847,658.3278473,-0.50563,"tent",18,2.95,0.084400323,0.24814935,1,1,1429.17,1.12562
"231","camping equipment","tent",67,22,3,1.747,0.572409845,572.4098454,-0.52286,"tent",18,2.95,0.084400323,0.24814935,1,1,1429.17,1.12562
"232","camping equipment","tent",49,20,3,2.067,0.483792937,483.7929366,-0.41931,"tent",18,2.95,0.084400323,0.24814935,1,1,1429.17,1.12562
"233","camping equipment","tent",76,21,3,2.066,0.484027106,484.0271055,-0.42843,"tent",18,2.95,0.084400323,0.24814935,1,1,1429.17,1.12562
"234","camping equipment","tent",19,6,3,3.9,0.256410256,256.4102564,0.19293,"tent",18,2.95,0.084400323,0.24814935,1,1,1429.17,1.12562
"235","camping equipment","tent",58,12,3,1.597,0.626174076,626.1740764,-0.84678,"tent",18,2.95,0.084400323,0.24814935,1,1,1429.17,1.12562
"236","camping equipment","tent",79,3,3,1.592,0.628140704,628.1407035,-0.8507,"tent",18,2.95,0.084400323,0.24814935,1,1,1429.17,1.12562
"237","camping equipment","tent",61,15,3,2.727,0.366703337,366.703337,-0.29301,"tent",18,2.95,0.084400323,0.24814935,1,1,1429.17,1.12562
"238","camping equipment","tent",37,34,3,3.079,0.324780773,324.780773,-0.412,"tent",18,2.95,0.084400323,0.24814935,1,1,1429.17,1.12562
"239","camping equipment","tent",64,26,3,3.438,0.290866783,290.866783,0.16078,"tent",18,2.95,0.084400323,0.24814935,1,1,1429.17,1.12562
"240","camping equipment","tent",46,37,3,1.61,0.621118012,621.1180124,-0.57961,"tent",18,2.95,0.084400323,0.24814935,1,1,1429.17,1.12562
"241","camping equipment","tent",80,4,3,2.004,0.499001996,499.001996,-0.4323,"tent",18,2.95,0.084400323,0.24814935,1,1,1429.17,1.12562
"242","camping equipment","tent",25,5,3,3.068,0.325945241,325.9452412,0.00795,"tent",18,2.95,0.084400323,0.24814935,1,1,1429.17,1.12562
"243","camping equipment","tent",31,39,3,2.288,0.437062937,437.0629371,-0.37615,"tent",18,2.95,0.084400323,0.24814935,1,1,1429.17,1.12562
"244","carpenter's tool","hammer",56,21,1,1.734,0.576701269,576.7012687,-0.5006,"hammer",17,2.8,0.015910764,0.334981442,1.55,2,1234.82,1.1697
"245","carpenter's tool","hammer",62,15,1,13.406,0.074593466,74.59346561,3.29735,"hammer",17,2.8,0.015910764,0.334981442,1.55,2,1234.82,1.1697
"246","carpenter's tool","hammer",50,28,1,2.983,0.335232987,335.2329869,-0.47066,"hammer",17,2.8,0.015910764,0.334981442,1.55,2,1234.82,1.1697
"247","carpenter's tool","saw",29,18,1,2.1,0.476190476,476.1904762,-0.54308,"saw",10,4.31,0.019866016,0.403544783,1,1,1234.82,1.1697
"248","carpenter's tool","saw",47,36,1,3.854,0.25947068,259.4706798,-0.04549,"saw",10,4.31,0.019866016,0.403544783,1,1,1234.82,1.1697
"249","carpenter's tool","hammer",26,35,1,2.813,0.355492357,355.4923569,-0.35664,"hammer",17,2.8,0.015910764,0.334981442,1.55,2,1234.82,1.1697
"250","carpenter's tool","hammer",20,8,1,1.843,0.542593597,542.5935974,-0.76823,"hammer",17,2.8,0.015910764,0.334981442,1.55,2,1234.82,1.1697
"251","carpenter's tool","hammer",77,3,1,5.408,0.184911243,184.9112426,1.34939,"hammer",17,2.8,0.015910764,0.334981442,1.55,2,1234.82,1.1697
"252","carpenter's tool","spanner",71,18,1,2.54,0.393700787,393.7007874,-0.26173,"wrench",3,1,0.039564894,0.337011874,1.9,2,1234.82,1.1697
"253","carpenter's tool","hammer",23,38,1,3.751,0.266595575,266.5955745,2.16113,"hammer",17,2.8,0.015910764,0.334981442,1.55,2,1234.82,1.1697
"254","carpenter's tool","hammer",38,2,1,1.722,0.580720093,580.7200929,-0.54238,"hammer",17,2.8,0.015910764,0.334981442,1.55,2,1234.82,1.1697
"255","carpenter's tool","hammer",68,6,1,3.777,0.264760392,264.7603918,-0.16267,"hammer",17,2.8,0.015910764,0.334981442,1.55,2,1234.82,1.1697
"256","carpenter's tool","hammer",65,5,1,2.182,0.458295142,458.2951421,-0.74785,"hammer",17,2.8,0.015910764,0.334981442,1.55,2,1234.82,1.1697
"257","carpenter's tool","hammer",17,8,1,6.186,0.161655351,161.6553508,0.82298,"hammer",17,2.8,0.015910764,0.334981442,1.55,2,1234.82,1.1697
"258","carpenter's tool","hammer",74,21,1,2.51,0.398406375,398.4063745,0.01942,"hammer",17,2.8,0.015910764,0.334981442,1.55,2,1234.82,1.1697
"259","carpenter's tool","hammer",53,34,1,2.922,0.342231348,342.2313484,0.04679,"hammer",17,2.8,0.015910764,0.334981442,1.55,2,1234.82,1.1697
"260","chemical element","hydrogen",72,21,2,3.691,0.270929287,270.9292875,0.05822,"hydrogen",14,2.14,0.146804063,0.316623542,4.4,3,1139.67,1.12562
"261","chemical element","hydrogen",18,13,2,17.097,0.058489794,58.48979353,4.29026,"hydrogen",14,2.14,0.146804063,0.316623542,4.4,3,1139.67,1.12562
"262","chemical element","magnesium",78,34,2,1.778,0.562429696,562.4296963,-1.20306,"magnesium",7,1.67,0.099249311,0.445965848,3.85,3,1139.67,1.12562
"263","chemical element","hydrogen",42,20,2,3.053,0.327546675,327.5466754,0.68432,"hydrogen",14,2.14,0.146804063,0.316623542,4.4,3,1139.67,1.12562
"264","chemical element","oxygen",24,24,2,6.323,0.158152776,158.1527756,0.28297,"oxygen",15,2.85,0.26733512,0.279544138,3.55,3,1139.67,1.12562
"265","chemical element","hydrogen",21,9,2,4.821,0.207425845,207.4258453,0.56102,"hydrogen",14,2.14,0.146804063,0.316623542,4.4,3,1139.67,1.12562
"266","chemical element","sulphur",39,21,2,2.057,0.486144871,486.1448712,-0.47031,"sulphur",7,1.64,0.16080199,0.379018509,1.95,2,1139.67,1.12562
"267","chemical element","h2o",48,9,2,4.759,0.210128178,210.1281782,2.3882,"h2o",2,NA,NA,0.537894966,NA,NA,1139.67,1.12562
"268","chemical element","hydrogen",69,26,2,2.462,0.406173842,406.1738424,-0.37,"hydrogen",14,2.14,0.146804063,0.316623542,4.4,3,1139.67,1.12562
"269","chemical element","bromine",36,31,2,2.646,0.377928949,377.9289494,-0.24179,"bromine",3,NA,NA,0.66451937,2.7,2,1139.67,1.12562
"270","chemical element","nickel",27,19,2,10.085,0.099157164,99.15716411,1.53397,"nickel",3,2.64,0.212362787,0.424020398,1.6,2,1139.67,1.12562
"271","chemical element","sodium",75,3,2,2.777,0.360100828,360.1008282,-0.14646,"sodium",5,2.1,0.239746676,0.382734261,2.3,2,1139.67,1.12562
"272","chemical element","oxygen",33,3,2,3.519,0.28417164,284.1716397,-0.48607,"oxygen",15,2.85,0.26733512,0.279544138,3.55,3,1139.67,1.12562
"273","chemical element","oxygen",51,16,2,4.022,0.248632521,248.6325211,0.60082,"oxygen",15,2.85,0.26733512,0.279544138,3.55,3,1139.67,1.12562
"274","chemical element","hydrogen",57,9,2,4.967,0.20132877,201.3287699,1.31851,"hydrogen",14,2.14,0.146804063,0.316623542,4.4,3,1139.67,1.12562
"275","chemical element","hydrogen",30,25,2,3.799,0.263227165,263.227165,0.29101,"hydrogen",14,2.14,0.146804063,0.316623542,4.4,3,1139.67,1.12562
"276","chemical element","hydrogen",54,6,2,2.97,0.336700337,336.7003367,-0.51228,"hydrogen",14,2.14,0.146804063,0.316623542,4.4,3,1139.67,1.12562
"277","chemical element","sulphur",45,30,2,2.818,0.354861604,354.861604,-0.58605,"sulphur",7,1.64,0.16080199,0.379018509,1.95,2,1139.67,1.12562
"278","chemical element","hydrogen",60,28,2,3.584,0.279017857,279.0178571,-0.29233,"hydrogen",14,2.14,0.146804063,0.316623542,4.4,3,1139.67,1.12562
"279","citrus fruit","lemon",19,21,3,1.591,0.628535512,628.5355123,-0.75817,"lemon",16,2.79,0.00792746,0.24801863,1.7,2,1338.18,1.12562
"280","citrus fruit","lemon",80,15,3,1.813,0.55157198,551.5719801,-0.62379,"lemon",16,2.79,0.00792746,0.24801863,1.7,2,1338.18,1.12562
"281","citrus fruit","lemon",64,37,3,1.713,0.583771162,583.7711617,-1.19542,"lemon",16,2.79,0.00792746,0.24801863,1.7,2,1338.18,1.12562
"282","citrus fruit","lemon",31,9,3,2.291,0.436490615,436.4906155,-0.37501,"lemon",16,2.79,0.00792746,0.24801863,1.7,2,1338.18,1.12562
"283","citrus fruit","orange",61,28,3,2.858,0.349895031,349.8950315,-0.2282,"orange",14,3.06,0.02040788,0.238834875,1.95,2,1338.18,1.12562
"284","citrus fruit","lemon",58,4,3,1.541,0.648929267,648.9292667,-0.90141,"lemon",16,2.79,0.00792746,0.24801863,1.7,2,1338.18,1.12562
"285","citrus fruit","orange",79,13,3,2.606,0.383729854,383.7298542,-0.47181,"orange",14,3.06,0.02040788,0.238834875,1.95,2,1338.18,1.12562
"286","citrus fruit","lemon",22,35,3,1.331,0.751314801,751.3148009,-0.72356,"lemon",16,2.79,0.00792746,0.24801863,1.7,2,1338.18,1.12562
"287","citrus fruit","lemon",55,8,3,1.795,0.557103064,557.1030641,-1.02574,"lemon",16,2.79,0.00792746,0.24801863,1.7,2,1338.18,1.12562
"288","citrus fruit","orange",67,33,3,1.766,0.566251416,566.2514156,-0.5149,"orange",14,3.06,0.02040788,0.238834875,1.95,2,1338.18,1.12562
"289","citrus fruit","lemon",40,11,3,1.395,0.716845878,716.8458781,-0.83533,"lemon",16,2.79,0.00792746,0.24801863,1.7,2,1338.18,1.12562
"290","citrus fruit","oranges",25,32,3,2.066,0.484027106,484.0271055,-0.69366,"orange",4,2.1,0.02040788,0.305911027,2.65,3,1338.18,1.12562
"291","citrus fruit","lemons",70,23,3,2.097,0.476871722,476.8717215,-0.33961,"lemon",2,1.93,0.00792746,0.335246469,1.95,2,1338.18,1.12562
"292","citrus fruit","orange",46,18,3,2.502,0.399680256,399.6802558,-0.31615,"orange",14,3.06,0.02040788,0.238834875,1.95,2,1338.18,1.12562
"293","citrus fruit","kiwi",52,16,3,4.186,0.238891543,238.8915432,0.57644,"kiwi",2,1.61,0.004145253,0.414262401,2,2,1338.18,1.12562
"294","citrus fruit","orange",76,20,3,1.565,0.638977636,638.9776358,-0.97172,"orange",14,3.06,0.02040788,0.238834875,1.95,2,1338.18,1.12562
"295","citrus fruit","orange",37,13,3,3.664,0.272925764,272.9257642,-0.19028,"orange",14,3.06,0.02040788,0.238834875,1.95,2,1338.18,1.12562
"296","citrus fruit","grapefruit",28,34,3,3.873,0.258197779,258.1977795,0.54135,"grapefruit",9,2.1,0.013214102,0.39466617,4.65,2,1338.18,1.12562
"297","citrus fruit","orange",43,30,3,7.648,0.130753138,130.7531381,1.20918,"orange",14,3.06,0.02040788,0.238834875,1.95,2,1338.18,1.12562
"298","citrus fruit","orange",49,36,3,4.452,0.224618149,224.6181491,0.63027,"orange",14,3.06,0.02040788,0.238834875,1.95,2,1338.18,1.12562
"299","clothing","top",48,2,2,2.13,0.469483568,469.4835681,-0.32631,"top",4,3.83,0.20653714,0.414859629,1,1,586.36,1.34009
"300","clothing","hat",42,3,2,1.355,0.73800738,738.0073801,-0.98688,"hat",12,3.52,0.287115314,0.332163125,1,1,586.36,1.34009
"301","clothing","jumper",36,38,2,2.35,0.425531915,425.5319149,-0.44509,"jumper",14,2.07,0.11884276,0.355443544,2.5,2,586.36,1.34009
"302","clothing","t-shirt",30,6,2,2.129,0.469704086,469.7040864,-0.44051,"t-shirt",11,NA,NA,0.347180882,NA,NA,586.36,1.34009
"303","clothing","top",33,16,2,5.527,0.18092998,180.9299801,-0.0643,"top",4,3.83,0.20653714,0.414859629,1,1,586.36,1.34009
"304","clothing","shoes",39,14,2,2.007,0.498256104,498.2561036,-0.49033,"shoe",10,3.58,0.151732819,0.299771083,1,1,586.36,1.34009
"305","clothing","hat",78,38,2,3.108,0.321750322,321.7503218,-0.34791,"hat",12,3.52,0.287115314,0.332163125,1,1,586.36,1.34009
"306","clothing","t-shirt",72,13,2,3.314,0.301750151,301.7501509,-0.07885,"t-shirt",11,NA,NA,0.347180882,NA,NA,586.36,1.34009
"307","clothing","shoes",54,4,2,2.905,0.344234079,344.2340792,-0.53246,"shoe",10,3.58,0.151732819,0.299771083,1,1,586.36,1.34009
"308","clothing","t-shirts",63,39,2,2.008,0.498007968,498.0079681,-0.62139,"t-shirt",3,NA,NA,0.365298425,NA,NA,586.36,1.34009
"309","clothing","vest",21,22,2,2.267,0.441111601,441.1116012,-0.94034,"vest",6,2.45,0.109649123,0.395144385,1.15,1,586.36,1.34009
"310","clothing","socks",24,28,2,3.793,0.263643554,263.6435539,-0.45135,"sock",14,2.97,0.164612533,0.331166932,1.1,1,586.36,1.34009
"311","clothing","hat",69,3,2,2.492,0.401284109,401.2841091,-0.35638,"hat",12,3.52,0.287115314,0.332163125,1,1,586.36,1.34009
"312","clothing","shirt",75,1,2,1.572,0.636132316,636.1323155,-0.40627,"shirt",10,3.37,0.119830395,0.316643077,1.5,1,586.36,1.34009
"313","clothing","shirt",51,17,2,2.638,0.379075057,379.0750569,-0.17879,"shirt",10,3.37,0.119830395,0.316643077,1.5,1,586.36,1.34009
"314","clothing","jeans",57,37,2,2.225,0.449438202,449.4382022,-0.61395,"jeans",14,2.53,0.119272534,0.345146082,1.7,1,586.36,1.34009
"315","clothing","hat",27,17,2,2.531,0.395100751,395.1007507,-0.55902,"hat",12,3.52,0.287115314,0.332163125,1,1,586.36,1.34009
"316","clothing","shoes",60,11,2,5.248,0.19054878,190.5487805,0.33552,"shoe",10,3.58,0.151732819,0.299771083,1,1,586.36,1.34009
"317","clothing","coat",18,14,2,4.025,0.248447205,248.447205,-0.13659,"coat",12,3.33,0.11012325,0.316249547,1,1,586.36,1.34009
"318","colour","red",62,31,1,2.165,0.461893764,461.8937644,-0.502,"red",20,3.88,0.028149378,0.239277596,1,1,568.06,1.34009
"319","colour","red",44,3,1,1.897,0.527148129,527.1481286,-0.78314,"red",20,3.88,0.028149378,0.239277596,1,1,568.06,1.34009
"320","colour","blue",77,37,1,1.548,0.645994832,645.994832,-0.81334,"blue",20,3.72,0.032853465,0.219817944,1.3,1,568.06,1.34009
"321","colour","red",53,13,1,1.285,0.778210117,778.2101167,-1.10289,"red",20,3.88,0.028149378,0.239277596,1,1,568.06,1.34009
"322","colour","red",74,13,1,1.553,0.643915003,643.9150032,-0.90523,"red",20,3.88,0.028149378,0.239277596,1,1,568.06,1.34009
"323","colour","red",71,5,1,1.347,0.742390497,742.3904974,-1.05323,"red",20,3.88,0.028149378,0.239277596,1,1,568.06,1.34009
"324","colour","red",47,16,1,2.979,0.335683115,335.6831151,-0.59441,"red",20,3.88,0.028149378,0.239277596,1,1,568.06,1.34009
"325","colour","red",23,34,1,1.745,0.573065903,573.0659026,-0.77454,"red",20,3.88,0.028149378,0.239277596,1,1,568.06,1.34009
"326","colour","red",38,8,1,1.566,0.638569604,638.5696041,-0.63535,"red",20,3.88,0.028149378,0.239277596,1,1,568.06,1.34009
"327","colour","blue",32,9,1,1.329,0.752445448,752.4454477,-1.16195,"blue",20,3.72,0.032853465,0.219817944,1.3,1,568.06,1.34009
"328","colour","blue",17,12,1,1.91,0.523560209,523.5602094,-0.81681,"blue",20,3.72,0.032853465,0.219817944,1.3,1,568.06,1.34009
"329","colour","pink",35,19,1,1.408,0.710227273,710.2272727,-0.83334,"pink",17,3.16,0.02914517,0.238195558,1.15,1,568.06,1.34009
"330","colour","blue",59,7,1,1.997,0.500751127,500.7511267,-0.8206,"blue",20,3.72,0.032853465,0.219817944,1.3,1,568.06,1.34009
"331","colour","red",20,12,1,1.628,0.614250614,614.2506143,-0.97642,"red",20,3.88,0.028149378,0.239277596,1,1,568.06,1.34009
"332","colour","blue",50,5,1,1.334,0.749625187,749.6251874,-1.14429,"blue",20,3.72,0.032853465,0.219817944,1.3,1,568.06,1.34009
"333","colour","red",65,25,1,2.224,0.449640288,449.6402878,-0.72222,"red",20,3.88,0.028149378,0.239277596,1,1,568.06,1.34009
"334","colour","orange",68,34,1,4.479,0.223264121,223.2641215,0.29698,"orange",19,3.06,0.384443379,0.257066534,1.95,2,568.06,1.34009
"335","colour","red",26,36,1,2.413,0.414421881,414.4218815,-0.53988,"red",20,3.88,0.028149378,0.239277596,1,1,568.06,1.34009
"336","colour","red",29,3,1,2.186,0.457456542,457.4565416,-0.4953,"red",20,3.88,0.028149378,0.239277596,1,1,568.06,1.34009
"337","colour","orange",56,17,1,1.354,0.738552437,738.5524372,-0.7824,"orange",19,3.06,0.384443379,0.257066534,1.95,2,568.06,1.34009
"338","cosmetic","makeup",50,9,1,6.655,0.15026296,150.2629602,1.02939,"makeup",10,2.9,0.033793855,0.376002177,2.55,2,727.71,1.34009
"339","cosmetic","makeup",17,13,1,8.647,0.115647045,115.6470452,1.76675,"makeup",10,2.9,0.033793855,0.376002177,2.55,2,727.71,1.34009
"340","cosmetic","makeup",26,18,1,2.354,0.424808836,424.808836,-0.5669,"makeup",10,2.9,0.033793855,0.376002177,2.55,2,727.71,1.34009
"341","cosmetic","surgery",68,17,1,6.191,0.161524794,161.5247941,1.41797,"surgery",3,3.22,0.132548072,0.352435481,3.1,3,727.71,1.34009
"342","cosmetic","lipstick",38,27,1,2.328,0.429553265,429.5532646,-0.18123,"lipstick",12,2.65,0.192737211,0.375727833,3.45,2,727.71,1.34009
"343","cosmetic","makeup",47,18,1,4.441,0.22517451,225.1745102,0.32276,"makeup",10,2.9,0.033793855,0.376002177,2.55,2,727.71,1.34009
"344","cosmetic","makeup",62,22,1,1.913,0.522739153,522.7391532,-0.58718,"makeup",10,2.9,0.033793855,0.376002177,2.55,2,727.71,1.34009
"345","cosmetic","makeup",74,37,1,2.294,0.435919791,435.9197908,-0.18928,"makeup",10,2.9,0.033793855,0.376002177,2.55,2,727.71,1.34009
"346","cosmetic","makeup",65,33,1,5.555,0.180018002,180.0180018,1.31038,"makeup",10,2.9,0.033793855,0.376002177,2.55,2,727.71,1.34009
"347","cosmetic","makeup",44,20,1,4.633,0.215842866,215.8428664,-0.13471,"makeup",10,2.9,0.033793855,0.376002177,2.55,2,727.71,1.34009
"348","cosmetic","lipstick",29,2,1,1.963,0.50942435,509.4243505,-0.61921,"lipstick",12,2.65,0.192737211,0.375727833,3.45,2,727.71,1.34009
"349","cosmetic","lipstick",23,25,1,1.649,0.606428138,606.4281383,-0.91503,"lipstick",12,2.65,0.192737211,0.375727833,3.45,2,727.71,1.34009
"350","cosmetic","lipstick",53,31,1,3.922,0.254971953,254.9719531,0.7491,"lipstick",12,2.65,0.192737211,0.375727833,3.45,2,727.71,1.34009
"351","cosmetic","lipstick",20,7,1,1.665,0.600600601,600.6006006,-0.9406,"lipstick",12,2.65,0.192737211,0.375727833,3.45,2,727.71,1.34009
"352","cosmetic","highlighter",35,34,1,5.237,0.190949017,190.9490166,1.0851,"highlighter",2,NA,0.094226046,0.583707364,NA,NA,727.71,1.34009
"353","cosmetic","cream",56,8,1,7.375,0.13559322,135.5932203,3.68262,"cream",2,3.4,0.291247783,0.48168294,1.3,1,727.71,1.34009
"354","cosmetic","lipstick",77,15,1,3.66,0.273224044,273.2240437,0.37,"lipstick",12,2.65,0.192737211,0.375727833,3.45,2,727.71,1.34009
"355","cosmetic","mascara",71,27,1,2.297,0.435350457,435.3504571,-0.42295,"mascara",9,1.81,0.053742037,0.397420008,3.35,3,727.71,1.34009
"356","crime","murder",55,29,3,1.863,0.536768653,536.7686527,-0.95818,"murder",18,3.76,0.068654372,0.258296366,1.8,2,605.06,1.34009
"357","crime","theft",40,12,3,1.513,0.660938533,660.9385327,-0.77901,"theft",10,2.54,0.067888585,0.320051538,1.9,1,605.06,1.34009
"358","crime","vandalism",70,3,3,2.277,0.439174352,439.1743522,-0.28791,"vandalism",3,1.9,0.037952399,0.455392394,3.45,4,605.06,1.34009
"359","crime","robbery",46,28,3,3.031,0.329924117,329.9241175,-0.15991,"robbery",12,3.07,0.050376241,0.371822896,2.15,3,605.06,1.34009
"360","crime","arson",80,20,3,3.134,0.319081047,319.0810466,0.70057,"arson",4,2.19,0.106684067,0.490955177,1.9,2,605.06,1.34009
"361","crime","theft",49,13,3,3.984,0.251004016,251.0040161,0.42432,"theft",10,2.54,0.067888585,0.320051538,1.9,1,605.06,1.34009
"362","crime","murder",22,30,3,2.019,0.4952947,495.2947003,-0.11996,"murder",18,3.76,0.068654372,0.258296366,1.8,2,605.06,1.34009
"363","crime","theft",67,28,3,2.074,0.482160077,482.1600771,-0.38586,"theft",10,2.54,0.067888585,0.320051538,1.9,1,605.06,1.34009
"364","crime","theft",76,39,3,2.102,0.475737393,475.737393,-0.38939,"theft",10,2.54,0.067888585,0.320051538,1.9,1,605.06,1.34009
"365","crime","murder",52,23,3,4.066,0.245941958,245.9419577,0.48381,"murder",18,3.76,0.068654372,0.258296366,1.8,2,605.06,1.34009
"366","crime","murder",19,7,3,3.23,0.309597523,309.5975232,-0.08305,"murder",18,3.76,0.068654372,0.258296366,1.8,2,605.06,1.34009
"367","crime","burglary",58,19,3,3.255,0.307219662,307.2196621,0.77069,"burglary",12,2.26,0.038393856,0.353245123,3.3,3,605.06,1.34009
"368","crime","knife",43,37,3,2.843,0.351741119,351.7411185,-0.60052,"knife",2,3.38,0.257388824,0.333275319,1.5,1,605.06,1.34009
"369","crime","fraud",28,17,3,2.514,0.397772474,397.7724741,-0.39563,"fraud",11,2.71,0.065853747,0.287455338,1.6,1,605.06,1.34009
"370","crime","stealing",64,10,3,2.05,0.487804878,487.804878,-0.93047,"stealing",3,3.1,0.184421716,0.35047842,1.8,2,605.06,1.34009
"371","crime","robbery",79,24,3,2.138,0.467726848,467.7268475,-0.64668,"robbery",12,3.07,0.050376241,0.371822896,2.15,3,605.06,1.34009
"372","crime","theft",31,11,3,2.237,0.447027269,447.0272687,-0.39556,"theft",10,2.54,0.067888585,0.320051538,1.9,1,605.06,1.34009
"373","crime","murder",61,31,3,2.8,0.357142857,357.1428571,-0.2569,"murder",18,3.76,0.068654372,0.258296366,1.8,2,605.06,1.34009
"374","crime","murder",37,15,3,2.964,0.337381916,337.3819163,-0.45559,"murder",18,3.76,0.068654372,0.258296366,1.8,2,605.06,1.34009
"375","dairy product","milk",25,6,3,1.581,0.632511069,632.5110689,-1.03327,"milk",20,3.34,0.054288797,0.24316205,1.55,1,1183.89,1.1697
"376","dairy product","milk",31,22,3,1.77,0.564971751,564.9717514,-0.57327,"milk",20,3.34,0.054288797,0.24316205,1.55,1,1183.89,1.1697
"377","dairy product","milk",19,27,3,2.094,0.477554919,477.5549188,-0.55098,"milk",20,3.34,0.054288797,0.24316205,1.55,1,1183.89,1.1697
"378","dairy product","milk",55,25,3,1.664,0.600961538,600.9615385,-1.15589,"milk",20,3.34,0.054288797,0.24316205,1.55,1,1183.89,1.1697
"379","dairy product","milk",61,27,3,2.108,0.474383302,474.3833017,-0.59922,"milk",20,3.34,0.054288797,0.24316205,1.55,1,1183.89,1.1697
"380","dairy product","milk",70,39,3,1.919,0.521104742,521.1047421,-0.39074,"milk",20,3.34,0.054288797,0.24316205,1.55,1,1183.89,1.1697
"381","dairy product","milk",67,35,3,2.188,0.457038391,457.0383912,-0.33809,"milk",20,3.34,0.054288797,0.24316205,1.55,1,1183.89,1.1697
"382","dairy product","milk",58,6,3,1.788,0.559284116,559.2841163,-0.66045,"milk",20,3.34,0.054288797,0.24316205,1.55,1,1183.89,1.1697
"383","dairy product","milk",64,22,3,2.331,0.429000429,429.000429,-0.70955,"milk",20,3.34,0.054288797,0.24316205,1.55,1,1183.89,1.1697
"384","dairy product","cheese",52,14,3,4.168,0.239923225,239.9232246,0.56254,"cheese",18,3.3,0.057112944,0.285965709,1.5,1,1183.89,1.1697
"385","dairy product","milk",76,34,3,1.858,0.538213132,538.2131324,-0.65399,"milk",20,3.34,0.054288797,0.24316205,1.55,1,1183.89,1.1697
"386","dairy product","milk",37,4,3,1.65,0.606060606,606.0606061,-0.95361,"milk",20,3.34,0.054288797,0.24316205,1.55,1,1183.89,1.1697
"387","dairy product","milk",46,12,3,1.736,0.576036866,576.0368664,-0.5424,"milk",20,3.34,0.054288797,0.24316205,1.55,1,1183.89,1.1697
"388","dairy product","milk",28,7,3,1.806,0.553709856,553.709856,-0.88376,"milk",20,3.34,0.054288797,0.24316205,1.55,1,1183.89,1.1697
"389","dairy product","milk",40,8,3,3.293,0.303674461,303.674461,0.07057,"milk",20,3.34,0.054288797,0.24316205,1.55,1,1183.89,1.1697
"390","dairy product","milk",79,36,3,1.987,0.503271263,503.2712632,-0.7031,"milk",20,3.34,0.054288797,0.24316205,1.55,1,1183.89,1.1697
"391","dairy product","milk",43,12,3,2.275,0.43956044,439.5604396,-0.81445,"milk",20,3.34,0.054288797,0.24316205,1.55,1,1183.89,1.1697
"392","dairy product","milk",80,29,3,1.695,0.589970501,589.9705015,-0.74209,"milk",20,3.34,0.054288797,0.24316205,1.55,1,1183.89,1.1697
"393","dairy product","milk",49,9,3,1.651,0.605693519,605.6935191,-0.60239,"milk",20,3.34,0.054288797,0.24316205,1.55,1,1183.89,1.1697
"394","dairy product","milk",22,3,3,1.405,0.711743772,711.7437722,-0.65864,"milk",20,3.34,0.054288797,0.24316205,1.55,1,1183.89,1.1697
"395","day of the week","monday",19,3,3,2.4,0.416666667,416.6666667,-0.42493,"monday",19,3.23,0.100003675,0.256197581,1.8,2,2387.81,0.54978
"396","day of the week","monday",40,4,3,1.677,0.596302922,596.3029219,-0.70074,"monday",19,3.23,0.100003675,0.256197581,1.8,2,2387.81,0.54978
"397","day of the week","monday",31,14,3,1.957,0.510986203,510.9862034,-0.50211,"monday",19,3.23,0.100003675,0.256197581,1.8,2,2387.81,0.54978
"398","day of the week","monday",79,10,3,2.926,0.3417635,341.7634997,-0.35225,"monday",19,3.23,0.100003675,0.256197581,1.8,2,2387.81,0.54978
"399","day of the week","monday",76,12,3,1.669,0.599161174,599.1611744,-0.85894,"monday",19,3.23,0.100003675,0.256197581,1.8,2,2387.81,0.54978
"400","day of the week","monday",80,12,3,1.364,0.73313783,733.1378299,-1.07393,"monday",19,3.23,0.100003675,0.256197581,1.8,2,2387.81,0.54978
"401","day of the week","monday",43,24,3,3.827,0.26130128,261.3012804,-0.22992,"monday",19,3.23,0.100003675,0.256197581,1.8,2,2387.81,0.54978
"402","day of the week","monday",37,2,3,1.66,0.602409639,602.4096386,-0.94982,"monday",19,3.23,0.100003675,0.256197581,1.8,2,2387.81,0.54978
"403","day of the week","monday",58,38,3,1.736,0.576036866,576.0368664,-0.71118,"monday",19,3.23,0.100003675,0.256197581,1.8,2,2387.81,0.54978
"404","day of the week","monday",25,30,3,1.238,0.807754443,807.7544426,-1.27344,"monday",19,3.23,0.100003675,0.256197581,1.8,2,2387.81,0.54978
"405","day of the week","sunday",52,18,3,2.648,0.377643505,377.6435045,-0.61068,"sunday",19,3.34,0.054089289,0.211569602,1.9,2,2387.81,0.54978
"406","day of the week","monday",28,28,3,1.704,0.58685446,586.8544601,-0.95409,"monday",19,3.23,0.100003675,0.256197581,1.8,2,2387.81,0.54978
"407","day of the week","monday",55,17,3,1.527,0.654878847,654.8788474,-1.292,"monday",19,3.23,0.100003675,0.256197581,1.8,2,2387.81,0.54978
"408","day of the week","monday",67,14,3,1.197,0.835421888,835.4218881,-0.7533,"monday",19,3.23,0.100003675,0.256197581,1.8,2,2387.81,0.54978
"409","day of the week","monday",70,14,3,2.29,0.436681223,436.6812227,-0.28418,"monday",19,3.23,0.100003675,0.256197581,1.8,2,2387.81,0.54978
"410","day of the week","monday",46,29,3,1.306,0.765696784,765.6967841,-0.6694,"monday",19,3.23,0.100003675,0.256197581,1.8,2,2387.81,0.54978
"411","day of the week","monday",49,32,3,1.761,0.567859171,567.8591709,-0.55398,"monday",19,3.23,0.100003675,0.256197581,1.8,2,2387.81,0.54978
"412","day of the week","thursday",64,36,3,3.092,0.323415265,323.4152652,-0.11125,"thursday",20,3.09,0.083206881,0.284365148,2.9,2,2387.81,0.54978
"413","day of the week","monday",61,30,3,1.702,0.587544066,587.5440658,-0.80006,"monday",19,3.23,0.100003675,0.256197581,1.8,2,2387.81,0.54978
"414","day of the week","sunday",22,11,3,1.694,0.590318772,590.3187721,-0.40509,"sunday",19,3.34,0.054089289,0.211569602,1.9,2,2387.81,0.54978
"415","disease","malaria",75,25,2,3.263,0.306466442,306.4664419,-0.04167,"malaria",6,1.93,0.017989269,0.365770378,2.85,3,597.97,1.34009
"416","disease","smallpox",33,33,2,17.105,0.058462438,58.46243788,2.3676,"smallpox",5,1.88,0.063846237,0.405933077,4.45,2,597.97,1.34009
"417","disease","cancer",42,37,2,2.435,0.410677618,410.6776181,0.07608,"cancer",13,3.06,0.037393498,0.252068213,1.7,2,597.97,1.34009
"418","disease","cancer",18,39,2,5.662,0.176616037,176.6160367,0.41778,"cancer",13,3.06,0.037393498,0.252068213,1.7,2,597.97,1.34009
"419","disease","typhoid",69,5,2,3.94,0.253807107,253.8071066,0.30091,"typhoid",3,1.42,0.031088522,0.560123985,2.9,2,597.97,1.34009
"420","disease","cancer",57,14,2,4.422,0.226142017,226.1420172,0.93441,"cancer",13,3.06,0.037393498,0.252068213,1.7,2,597.97,1.34009
"421","disease","cholera",39,38,2,4.06,0.246305419,246.3054187,0.33181,"cholera",5,1.76,0.035172357,0.413464209,2.75,3,597.97,1.34009
"422","disease","cancer",78,17,2,5.515,0.181323663,181.3236627,1.19971,"cancer",13,3.06,0.037393498,0.252068213,1.7,2,597.97,1.34009
"423","disease","cancer",54,37,2,3.199,0.312597687,312.5976868,-0.4412,"cancer",13,3.06,0.037393498,0.252068213,1.7,2,597.97,1.34009
"424","disease","cancer",21,6,2,5.538,0.180570603,180.5706031,0.98251,"cancer",13,3.06,0.037393498,0.252068213,1.7,2,597.97,1.34009
"425","disease","flu",60,18,2,3.339,0.299490866,299.4908655,-0.38477,"flu",7,2.65,0.057203711,0.343228139,1.1,1,597.97,1.34009
"426","disease","ebola",51,13,2,1.713,0.583771162,583.7711617,-0.69984,"ebola",3,NA,NA,0.646879011,NA,NA,597.97,1.34009
"427","disease","hiv",27,35,2,2.347,0.426075841,426.0758415,-0.61,"hiv",8,NA,NA,0.366567937,NA,NA,597.97,1.34009
"428","disease","ebola",72,9,2,8.659,0.115486777,115.4867768,1.86442,"ebola",3,NA,NA,0.646879011,NA,NA,597.97,1.34009
"429","drug","cannabis",54,10,2,4.519,0.221287896,221.2878956,-0.03145,"cannabis",7,1.38,0.100871267,0.318355457,2.9,3,572.22,1.34009
"430","drug","cocaine",30,36,2,1.82,0.549450549,549.4505495,-0.57587,"cocaine",18,2.63,0.078328228,0.326439525,2,2,572.22,1.34009
"431","drug","paracetamol",72,23,2,4.171,0.239750659,239.7506593,0.23273,"acetaminophen",17,NA,0.041908542,0.531913252,NA,NA,572.22,1.34009
"432","drug","cannabis",48,11,2,3.53,0.283286119,283.286119,1.11922,"cannabis",7,1.38,0.100871267,0.318355457,2.9,3,572.22,1.34009
"433","drug","paracetamol",42,13,2,3.07,0.325732899,325.732899,0.70106,"acetaminophen",17,NA,0.041908542,0.531913252,NA,NA,572.22,1.34009
"434","drug","paracetamol",24,8,2,4.578,0.218435998,218.4359983,-0.22351,"acetaminophen",17,NA,0.041908542,0.531913252,NA,NA,572.22,1.34009
"435","drug","paracetamol",51,18,2,2.394,0.417710944,417.710944,-0.31623,"acetaminophen",17,NA,0.041908542,0.531913252,NA,NA,572.22,1.34009
"436","drug","cannabis",45,17,2,3.268,0.305997552,305.997552,-0.43814,"cannabis",7,1.38,0.100871267,0.318355457,2.9,3,572.22,1.34009
"437","drug","marijuana",69,29,2,5.342,0.187195807,187.1958068,0.93732,"marijuana",7,2.43,0.060034329,0.471078019,3.9,4,572.22,1.34009
"438","drug","paracetamol",18,16,2,5.912,0.169147497,169.1474966,0.50245,"acetaminophen",17,NA,0.041908542,0.531913252,NA,NA,572.22,1.34009
"439","drug","heroin",33,30,2,4.106,0.24354603,243.5460302,-0.36277,"heroin",15,2.7,0.065504564,0.305443697,2.4,2,572.22,1.34009
"440","drug","paracetamol",75,10,2,3.321,0.301114122,301.1141223,-0.02917,"acetaminophen",17,NA,0.041908542,0.531913252,NA,NA,572.22,1.34009
"441","drug","paracetamol",60,4,2,3.693,0.270782562,270.7825616,-0.2512,"acetaminophen",17,NA,0.041908542,0.531913252,NA,NA,572.22,1.34009
"442","drug","paracetamol",57,10,2,3.665,0.272851296,272.851296,0.40091,"acetaminophen",17,NA,0.041908542,0.531913252,NA,NA,572.22,1.34009
"443","drug","heroin",39,22,2,2.57,0.389105058,389.1050584,-0.26487,"heroin",15,2.7,0.065504564,0.305443697,2.4,2,572.22,1.34009
"444","drug","legal",63,16,2,4.15,0.240963855,240.9638554,0.52552,"legal",2,3.26,0.212228653,0.297800446,1.85,2,572.22,1.34009
"445","emotion","happy",39,39,2,1.767,0.565930956,565.9309564,-0.58644,"happy",14,4.23,0.038033557,0.403265402,1.75,2,679.33,1.34009
"446","emotion","happy",30,15,2,1.645,0.607902736,607.9027356,-0.65252,"happy",14,4.23,0.038033557,0.403265402,1.75,2,679.33,1.34009
"447","emotion","happy",33,25,2,3.944,0.253549696,253.5496957,-0.3968,"happy",14,4.23,0.038033557,0.403265402,1.75,2,679.33,1.34009
"448","emotion","sad",18,28,2,1.831,0.546149645,546.149645,-0.87959,"sad",15,3.51,0.018441596,0.308511471,1,1,679.33,1.34009
"449","emotion","happy",42,11,2,1.082,0.924214418,924.2144177,-1.25557,"happy",14,4.23,0.038033557,0.403265402,1.75,2,679.33,1.34009
"450","emotion","happiness",27,26,2,2.461,0.406338887,406.3388866,-0.57841,"happiness",5,3.1,0.037599743,0.30211174,2.55,3,679.33,1.34009
"451","emotion","happy",54,12,2,2.506,0.399042298,399.0422985,-0.65631,"happy",14,4.23,0.038033557,0.403265402,1.75,2,679.33,1.34009
"452","emotion","happy",24,3,2,1.858,0.538213132,538.2131324,-1.01297,"happy",14,4.23,0.038033557,0.403265402,1.75,2,679.33,1.34009
"453","emotion","depressed",63,37,2,1.814,0.551267916,551.2679162,-0.72527,"depressed",6,2.92,0.076261856,0.315557359,2.1,2,679.33,1.34009
"454","emotion","happy",72,25,2,1.537,0.650618087,650.6180872,-0.7249,"happy",14,4.23,0.038033557,0.403265402,1.75,2,679.33,1.34009
"455","emotion","sadness",75,17,2,1.575,0.634920635,634.9206349,-0.40562,"sadness",6,2.39,0.064287589,0.289741556,1.9,2,679.33,1.34009
"456","emotion","happy",57,35,2,2.045,0.488997555,488.997555,-0.74081,"happy",14,4.23,0.038033557,0.403265402,1.75,2,679.33,1.34009
"457","emotion","happy",60,14,2,2.316,0.431778929,431.7789292,-0.77077,"happy",14,4.23,0.038033557,0.403265402,1.75,2,679.33,1.34009
"458","emotion","happy",48,7,2,1.247,0.801924619,801.9246191,-1.23803,"happy",14,4.23,0.038033557,0.403265402,1.75,2,679.33,1.34009
"459","emotion","happiness",69,11,2,2.275,0.43956044,439.5604396,-0.45489,"happiness",5,3.1,0.037599743,0.30211174,2.55,3,679.33,1.34009
"460","emotion","happiness",78,10,2,3.593,0.278318954,278.3189535,-0.03607,"happiness",5,3.1,0.037599743,0.30211174,2.55,3,679.33,1.34009
"461","emotion","happy",21,21,2,2.036,0.491159136,491.1591356,-1.07613,"happy",14,4.23,0.038033557,0.403265402,1.75,2,679.33,1.34009
"462","emotion","love",45,1,2,5.158,0.193873594,193.8735944,0.18309,"love",5,4.75,0.035526938,0.457199243,1.35,1,679.33,1.34009
"463","emotion","happy",51,39,2,1.329,0.752445448,752.4454477,-0.91615,"happy",14,4.23,0.038033557,0.403265402,1.75,2,679.33,1.34009
"464","fabric","silk",58,36,3,1.995,0.501253133,501.2531328,-0.45851,"silk",13,2.7,0.016338077,0.320158249,1.4,1,618.52,1.34009
"465","fabric","silk",61,7,3,2.363,0.423190859,423.1908591,-0.47307,"silk",13,2.7,0.016338077,0.320158249,1.4,1,618.52,1.34009
"466","fabric","wool",19,23,3,2.431,0.411353353,411.3533525,-0.41216,"wool",10,2.21,0.023968192,0.313107933,1.35,1,618.52,1.34009
"467","fabric","cotton",79,30,3,2.551,0.392003136,392.003136,-0.49236,"cotton",18,2.86,0.014870305,0.344738387,1.8,2,618.52,1.34009
"468","fabric","silk",40,37,3,1.951,0.512557663,512.5576627,-0.56996,"silk",13,2.7,0.016338077,0.320158249,1.4,1,618.52,1.34009
"469","fabric","cloth",31,16,3,2.478,0.403551251,403.551251,-0.30385,"cloth",2,2.49,0.002294921,0.308097907,1.65,1,618.52,1.34009
"470","fabric","cotton",37,29,3,2.637,0.379218809,379.2188093,-0.57952,"cotton",18,2.86,0.014870305,0.344738387,1.8,2,618.52,1.34009
"471","fabric","silk",64,11,3,1.907,0.524383849,524.383849,-1.04289,"silk",13,2.7,0.016338077,0.320158249,1.4,1,618.52,1.34009
"472","fabric","cotton",46,15,3,1.868,0.535331906,535.3319058,-0.50341,"cotton",18,2.86,0.014870305,0.344738387,1.8,2,618.52,1.34009
"473","fabric","cotton",76,29,3,4.099,0.243961942,243.9619419,1.77619,"cotton",18,2.86,0.014870305,0.344738387,1.8,2,618.52,1.34009
"474","fabric","silk",80,21,3,1.804,0.554323725,554.3237251,-0.63281,"silk",13,2.7,0.016338077,0.320158249,1.4,1,618.52,1.34009
"475","fabric","silk",28,25,3,2.586,0.386697602,386.6976025,-0.34598,"silk",13,2.7,0.016338077,0.320158249,1.4,1,618.52,1.34009
"476","fabric","cotton",55,36,3,2.434,0.410846343,410.8463435,-0.39087,"cotton",18,2.86,0.014870305,0.344738387,1.8,2,618.52,1.34009
"477","fabric","silk",49,35,3,2.118,0.472143532,472.1435316,-0.39687,"silk",13,2.7,0.016338077,0.320158249,1.4,1,618.52,1.34009
"478","fabric","wool",70,9,3,2.059,0.485672657,485.6726566,-0.35053,"wool",10,2.21,0.023968192,0.313107933,1.35,1,618.52,1.34009
"479","fabric","silk",67,31,3,1.542,0.648508431,648.5084306,-0.60875,"silk",13,2.7,0.016338077,0.320158249,1.4,1,618.52,1.34009
"480","fabric","cotton",52,1,3,1.904,0.525210084,525.210084,-1.18494,"cotton",18,2.86,0.014870305,0.344738387,1.8,2,618.52,1.34009
"481","fabric","cotton",25,35,3,1.519,0.658327847,658.3278473,-1.07668,"cotton",18,2.86,0.014870305,0.344738387,1.8,2,618.52,1.34009
"482","fabric","silk",22,9,3,1.316,0.759878419,759.8784195,-0.73672,"silk",13,2.7,0.016338077,0.320158249,1.4,1,618.52,1.34009
"483","family relationship","mother",26,6,1,6.354,0.157381177,157.3811772,1.26542,"mother",14,4.39,0.022601393,0.161446725,1.7,2,1365.09,1.1697
"484","family relationship","mother",20,20,1,2.867,0.348796652,348.7966516,0.22334,"mother",14,4.39,0.022601393,0.161446725,1.7,2,1365.09,1.1697
"485","family relationship","brother",56,23,1,2.679,0.37327361,373.2736096,0.20019,"brother",15,4.16,0.061766793,0.20042156,1.9,2,1365.09,1.1697
"486","family relationship","father",50,23,1,3.572,0.279955207,279.9552072,-0.23004,"father",14,4.45,0.013808469,0.161952412,1.7,2,1365.09,1.1697
"487","family relationship","mother",32,38,1,1.75,0.571428571,571.4285714,-0.77274,"mother",14,4.39,0.022601393,0.161446725,1.7,2,1365.09,1.1697
"488","family relationship","mum",44,36,1,4.587,0.218007412,218.0074123,-0.14561,"mum",5,3.04,0.029711503,0.184253996,1,1,1365.09,1.1697
"489","family relationship","mother",23,12,1,1.295,0.772200772,772.2007722,-1.43309,"mother",14,4.39,0.022601393,0.161446725,1.7,2,1365.09,1.1697
"490","family relationship","mum",71,33,1,1.891,0.52882073,528.8207298,-0.69231,"mum",5,3.04,0.029711503,0.184253996,1,1,1365.09,1.1697
"491","family relationship","brother",77,23,1,1.819,0.549752611,549.7526113,-0.6615,"brother",15,4.16,0.061766793,0.20042156,1.9,2,1365.09,1.1697
"492","family relationship","father",47,39,1,5.471,0.182781941,182.7819411,0.96892,"father",14,4.45,0.013808469,0.161952412,1.7,2,1365.09,1.1697
"493","family relationship","mother",65,3,1,3.652,0.273822563,273.822563,0.14916,"mother",14,4.39,0.022601393,0.161446725,1.7,2,1365.09,1.1697
"494","family relationship","brother",59,3,1,3.182,0.314267756,314.2677561,-0.45503,"brother",15,4.16,0.061766793,0.20042156,1.9,2,1365.09,1.1697
"495","family relationship","mother",35,35,1,2.116,0.472589792,472.5897921,-0.47861,"mother",14,4.39,0.022601393,0.161446725,1.7,2,1365.09,1.1697
"496","family relationship","brother",17,3,1,4.27,0.234192037,234.1920375,0.08822,"brother",15,4.16,0.061766793,0.20042156,1.9,2,1365.09,1.1697
"497","family relationship","mum",68,8,1,3.618,0.276395799,276.3957988,-0.26678,"mum",5,3.04,0.029711503,0.184253996,1,1,1365.09,1.1697
"498","family relationship","sister",38,23,1,1.545,0.647249191,647.2491909,-0.64787,"sister",16,3.96,0.073322443,0.219550582,1.7,2,1365.09,1.1697
"499","family relationship","wife",53,5,1,2.225,0.449438202,449.4382022,-0.44272,"wife",7,4.25,0.012311791,0.178968501,1.5,1,1365.09,1.1697
"500","family relationship","mother",62,18,1,2.829,0.353481796,353.4817957,-0.27758,"mother",14,4.39,0.022601393,0.161446725,1.7,2,1365.09,1.1697
"501","family relationship","brother",74,29,1,1.991,0.502260171,502.2601708,-0.48203,"brother",15,4.16,0.061766793,0.20042156,1.9,2,1365.09,1.1697
"502","farm animal","pig",77,29,1,1.74,0.574712644,574.7126437,-0.70577,"pig",16,3.3,0.088728883,0.249390902,1,1,1224.55,0.61988
"503","farm animal","pig",17,27,1,2.094,0.477554919,477.5549188,-0.74625,"pig",16,3.3,0.088728883,0.249390902,1,1,1224.55,0.61988
"504","farm animal","cow",32,8,1,1.679,0.595592615,595.5926147,-0.83838,"cow",17,3.11,0.048156042,0.255277931,1,1,1224.55,0.61988
"505","farm animal","horse",47,29,1,3.522,0.283929585,283.9295855,-0.25377,"horse",13,3.68,0.021766433,0.210965217,1.2,1,1224.55,0.61988
"506","farm animal","pigs",44,13,1,2.104,0.475285171,475.2851711,-0.73408,"pig",3,2.83,0.088728883,0.256416177,1.5,1,1224.55,0.61988
"507","farm animal","cow",38,26,1,2.073,0.482392668,482.3926676,-0.3332,"cow",17,3.11,0.048156042,0.255277931,1,1,1224.55,0.61988
"508","farm animal","cow",26,1,1,1.901,0.526038927,526.0389269,-0.77441,"cow",17,3.11,0.048156042,0.255277931,1,1,1224.55,0.61988
"509","farm animal","pig",59,5,1,2.966,0.337154417,337.1544167,-0.52166,"pig",16,3.3,0.088728883,0.249390902,1,1,1224.55,0.61988
"510","farm animal","cow",62,9,1,2.01,0.497512438,497.5124378,-0.55439,"cow",17,3.11,0.048156042,0.255277931,1,1,1224.55,0.61988
"511","farm animal","pig",50,15,1,2.108,0.474383302,474.3833017,-0.8281,"pig",16,3.3,0.088728883,0.249390902,1,1,1224.55,0.61988
"512","farm animal","cow",53,2,1,1.691,0.591366056,591.3660556,-0.81775,"cow",17,3.11,0.048156042,0.255277931,1,1,1224.55,0.61988
"513","farm animal","cow",20,24,1,2.296,0.43554007,435.5400697,-0.32958,"cow",17,3.11,0.048156042,0.255277931,1,1,1224.55,0.61988
"514","farm animal","cow",56,15,1,2.375,0.421052632,421.0526316,-0.02525,"cow",17,3.11,0.048156042,0.255277931,1,1,1224.55,0.61988
"515","farm animal","cow",23,18,1,1.615,0.619195046,619.1950464,-0.96478,"cow",17,3.11,0.048156042,0.255277931,1,1,1224.55,0.61988
"516","farm animal","pig",71,16,1,1.987,0.503271263,503.2712632,-0.62862,"pig",16,3.3,0.088728883,0.249390902,1,1,1224.55,0.61988
"517","farm animal","cow",68,19,1,2.309,0.433087917,433.0879168,-1.12389,"cow",17,3.11,0.048156042,0.255277931,1,1,1224.55,0.61988
"518","farm animal","cow",35,6,1,1.652,0.605326877,605.3268765,-0.71109,"cow",17,3.11,0.048156042,0.255277931,1,1,1224.55,0.61988
"519","farm animal","pig",74,1,1,2.01,0.497512438,497.5124378,-0.46368,"pig",16,3.3,0.088728883,0.249390902,1,1,1224.55,0.61988
"520","farm animal","pigs",29,24,1,2.124,0.470809793,470.8097928,-0.52975,"pig",3,2.83,0.088728883,0.256416177,1.5,1,1224.55,0.61988
"521","farm animal","cow",65,30,1,1.92,0.520833333,520.8333333,-0.90772,"cow",17,3.11,0.048156042,0.255277931,1,1,1224.55,0.61988
"522","fish","trout",46,4,3,3.418,0.292568754,292.5687537,-0.04561,"trout",3,2.31,0.020923616,0.355570184,1.6,1,574.71,1.34009
"523","fish","herring",58,28,3,4.932,0.202757502,202.757502,2.4067,"herring",2,2.18,0.031132264,0.410561971,1.5,2,574.71,1.34009
"524","fish","goldfish",76,2,3,1.762,0.56753689,567.5368899,-0.75809,"goldfish",10,2.19,0.292563992,0.479557031,3.5,2,574.71,1.34009
"525","fish","goldfish",55,22,3,3.32,0.301204819,301.2048193,0.48941,"goldfish",10,2.19,0.292563992,0.479557031,3.5,2,574.71,1.34009
"526","fish","tuna",49,7,3,3.243,0.30835646,308.3564601,0.09822,"tuna",12,2.61,0.027547111,0.392317736,1.75,2,574.71,1.34009
"527","fish","tuna",28,26,3,2.272,0.440140845,440.1408451,-0.56247,"tuna",12,2.61,0.027547111,0.392317736,1.75,2,574.71,1.34009
"528","fish","goldfish",19,20,3,1.987,0.503271263,503.2712632,-0.59505,"goldfish",10,2.19,0.292563992,0.479557031,3.5,2,574.71,1.34009
"529","fish","goldfish",40,29,3,4.876,0.205086136,205.0861362,0.82612,"goldfish",10,2.19,0.292563992,0.479557031,3.5,2,574.71,1.34009
"530","fish","goldfish",64,24,3,5.691,0.175716043,175.7160429,1.93209,"goldfish",10,2.19,0.292563992,0.479557031,3.5,2,574.71,1.34009
"531","fish","cod",43,25,3,2.523,0.396353547,396.3535474,-0.72105,"cod",10,2.06,0.024738736,0.362440693,1,1,574.71,1.34009
"532","fish","tuna",70,29,3,2.165,0.461893764,461.8937644,-0.32008,"tuna",12,2.61,0.027547111,0.392317736,1.75,2,574.71,1.34009
"533","fish","haddock",22,12,3,1.668,0.599520384,599.5203837,-0.4279,"haddock",6,NA,NA,0.440403435,1.75,2,574.71,1.34009
"534","fish","trout",31,33,3,1.628,0.614250614,614.2506143,-0.6273,"trout",3,2.31,0.020923616,0.355570184,1.6,1,574.71,1.34009
"535","fish","tuna",79,35,3,3.888,0.257201646,257.2016461,0.0072,"tuna",12,2.61,0.027547111,0.392317736,1.75,2,574.71,1.34009
"536","fish","tuna",25,19,3,1.775,0.563380282,563.3802817,-0.89743,"tuna",12,2.61,0.027547111,0.392317736,1.75,2,574.71,1.34009
"537","fish","goldfish",52,15,3,2.144,0.46641791,466.4179104,-0.9997,"goldfish",10,2.19,0.292563992,0.479557031,3.5,2,574.71,1.34009
"538","fish","cod",61,13,3,2.157,0.463606861,463.6068614,-0.57498,"cod",10,2.06,0.024738736,0.362440693,1,1,574.71,1.34009
"539","fish","clownfish",37,31,3,4.477,0.22336386,223.3638597,0.11786,"clownfish",8,NA,0.197773509,0.676272527,NA,NA,574.71,1.34009
"540","fish","haddock",67,29,3,4.904,0.203915171,203.9151713,0.79985,"haddock",6,NA,NA,0.440403435,1.75,2,574.71,1.34009
"541","flower","roses",22,21,3,1.614,0.619578686,619.5786865,-0.47528,"rose",7,2.86,0.008019953,0.314397139,1.7,2,603.06,1.34009
"542","flower","rose",76,5,3,1.979,0.50530571,505.30571,-0.52277,"rose",12,3.43,0.008019953,0.305735155,1,1,603.06,1.34009
"543","flower","lilies",64,5,3,3.87,0.258397933,258.3979328,0.50042,"lily",5,1.991,0.019138196,0.424692142,1.85,2,603.06,1.34009
"544","flower","daisy",52,11,3,2.238,0.446827525,446.8275246,-0.92714,"daisy",13,2.84,0.033350098,0.391068227,1.6,2,603.06,1.34009
"545","flower","tulip",28,38,3,2.372,0.42158516,421.5851602,-0.49353,"tulip",8,1.61,0.027101235,0.441631704,1.95,2,603.06,1.34009
"546","flower","rose",79,26,3,1.937,0.516262261,516.2622612,-0.72179,"rose",12,3.43,0.008019953,0.305735155,1,1,603.06,1.34009
"547","flower","poppy",58,32,3,1.477,0.67704807,677.0480704,-0.96385,"poppy",2,2.31,0.093854898,0.343590951,1.4,2,603.06,1.34009
"548","flower","daisy",55,7,3,2.313,0.432338954,432.3389537,-0.51108,"daisy",13,2.84,0.033350098,0.391068227,1.6,2,603.06,1.34009
"549","flower","rose",43,2,3,1.888,0.529661017,529.6610169,-0.96021,"rose",12,3.43,0.008019953,0.305735155,1,1,603.06,1.34009
"550","flower","rose",61,14,3,2.415,0.414078675,414.0786749,-0.44735,"rose",12,3.43,0.008019953,0.305735155,1,1,603.06,1.34009
"551","flower","roses",70,18,3,1.333,0.750187547,750.1875469,-0.55906,"rose",7,2.86,0.008019953,0.314397139,1.7,2,603.06,1.34009
"552","flower","daffodils",40,22,3,1.52,0.657894737,657.8947368,-0.77567,"daffodil",4,1.52,0.081774483,0.398616575,3.65,3,603.06,1.34009
"553","flower","daisy",31,26,3,1.924,0.51975052,519.7505198,-0.51467,"daisy",13,2.84,0.033350098,0.391068227,1.6,2,603.06,1.34009
"554","flower","tulip",80,26,3,2.225,0.449438202,449.4382022,-0.21074,"tulip",8,1.61,0.027101235,0.441631704,1.95,2,603.06,1.34009
"555","flower","daisy",46,26,3,2.137,0.467945718,467.9457183,-0.42396,"daisy",13,2.84,0.033350098,0.391068227,1.6,2,603.06,1.34009
"556","flower","tulip",19,13,3,2.774,0.360490267,360.4902668,-0.27088,"tulip",8,1.61,0.027101235,0.441631704,1.95,2,603.06,1.34009
"557","flower","daisy",49,11,3,2.066,0.484027106,484.0271055,-0.41975,"daisy",13,2.84,0.033350098,0.391068227,1.6,2,603.06,1.34009
"558","flower","daisy",37,7,3,2.832,0.353107345,353.1073446,-0.50562,"daisy",13,2.84,0.033350098,0.391068227,1.6,2,603.06,1.34009
"559","four-legged animal","cow",43,20,3,5.884,0.169952413,169.9524133,0.5448,"cow",13,3.11,0.093217671,0.278727951,1,1,1981.19,0.596
"560","four-legged animal","dog",67,38,3,1.823,0.548546352,548.5463522,-0.49102,"dog",17,3.99,0.078850452,0.222268861,1.45,1,1981.19,0.596
"561","four-legged animal","dog",46,39,3,1.768,0.56561086,565.6108597,-0.53295,"dog",17,3.99,0.078850452,0.222268861,1.45,1,1981.19,0.596
"562","four-legged animal","dog",37,32,3,2.347,0.426075841,426.0758415,-0.68944,"dog",17,3.99,0.078850452,0.222268861,1.45,1,1981.19,0.596
"563","four-legged animal","dog",70,22,3,2.274,0.439753738,439.7537379,-0.28877,"dog",17,3.99,0.078850452,0.222268861,1.45,1,1981.19,0.596
"564","four-legged animal","dog",52,12,3,2.348,0.425894378,425.8943782,-0.84224,"dog",17,3.99,0.078850452,0.222268861,1.45,1,1981.19,0.596
"565","four-legged animal","cat",76,4,3,1.875,0.533333333,533.3333333,-0.63555,"cat",17,3.53,0.056150043,0.239681969,1,1,1981.19,0.596
"566","four-legged animal","dog",22,20,3,1.596,0.626566416,626.566416,-0.49107,"dog",17,3.99,0.078850452,0.222268861,1.45,1,1981.19,0.596
"567","four-legged animal","cat",19,38,3,1.939,0.515729758,515.7297576,-0.61482,"cat",17,3.53,0.056150043,0.239681969,1,1,1981.19,0.596
"568","four-legged animal","cat",61,10,3,2.718,0.367917586,367.9175865,-0.29746,"cat",17,3.53,0.056150043,0.239681969,1,1,1981.19,0.596
"569","four-legged animal","horse",80,30,3,1.682,0.594530321,594.530321,-0.75512,"horse",13,3.68,0.025289908,0.245938141,1.2,1,1981.19,0.596
"570","four-legged animal","dog",79,14,3,2.184,0.457875458,457.8754579,-0.62949,"dog",17,3.99,0.078850452,0.222268861,1.45,1,1981.19,0.596
"571","four-legged animal","cat",31,4,3,2.376,0.420875421,420.8754209,-0.34267,"cat",17,3.53,0.056150043,0.239681969,1,1,1981.19,0.596
"572","four-legged animal","lion",49,8,3,1.699,0.588581519,588.5815185,-0.58126,"lion",13,2.89,0.120525549,0.272979749,1.55,1,1981.19,0.596
"573","four-legged animal","dog",55,3,3,2.217,0.451059991,451.059991,-0.60646,"dog",17,3.99,0.078850452,0.222268861,1.45,1,1981.19,0.596
"574","four-legged animal","dog",28,13,3,2.139,0.467508181,467.5081814,-0.65417,"dog",17,3.99,0.078850452,0.222268861,1.45,1,1981.19,0.596
"575","four-legged animal","cat",25,33,3,1.44,0.694444444,694.4444444,-1.132,"cat",17,3.53,0.056150043,0.239681969,1,1,1981.19,0.596
"576","four-legged animal","dog",58,18,3,1.626,0.61500615,615.0061501,-0.81849,"dog",17,3.99,0.078850452,0.222268861,1.45,1,1981.19,0.596
"577","four-legged animal","lion",40,31,3,2.983,0.335232987,335.2329869,-0.07739,"lion",13,2.89,0.120525549,0.272979749,1.55,1,1981.19,0.596
"578","four-wheeled vehicle","car",32,34,1,2.333,0.428632662,428.6326618,-0.23376,"car",19,4.39,0.026811652,0.25628936,1,1,1952.68,1.80805
"579","four-wheeled vehicle","car",26,9,1,2.926,0.3417635,341.7634997,-0.30488,"car",19,4.39,0.026811652,0.25628936,1,1,1952.68,1.80805
"580","four-wheeled vehicle","van",74,31,1,1.895,0.527704485,527.7044855,-0.57479,"van",15,3.42,0.007336116,0.290582635,1,1,1952.68,1.80805
"581","four-wheeled vehicle","car",68,22,1,2.542,0.393391031,393.3910307,-0.97132,"car",19,4.39,0.026811652,0.25628936,1,1,1952.68,1.80805
"582","four-wheeled vehicle","car",71,25,1,3.262,0.306560392,306.5603924,0.21728,"car",19,4.39,0.026811652,0.25628936,1,1,1952.68,1.80805
"583","four-wheeled vehicle","car",62,1,1,2.652,0.377073906,377.0739065,-0.3374,"car",19,4.39,0.026811652,0.25628936,1,1,1952.68,1.80805
"584","four-wheeled vehicle","car",35,5,1,1.894,0.527983105,527.9831045,-0.58984,"car",19,4.39,0.026811652,0.25628936,1,1,1952.68,1.80805
"585","four-wheeled vehicle","car",23,15,1,2.464,0.405844156,405.8441558,0.27768,"car",19,4.39,0.026811652,0.25628936,1,1,1952.68,1.80805
"586","four-wheeled vehicle","car",44,11,1,3.262,0.306560392,306.5603924,-0.45964,"car",19,4.39,0.026811652,0.25628936,1,1,1952.68,1.80805
"587","four-wheeled vehicle","car",53,14,1,2.56,0.390625,390.625,-0.20745,"car",19,4.39,0.026811652,0.25628936,1,1,1952.68,1.80805
"588","four-wheeled vehicle","car",47,10,1,2.756,0.362844702,362.8447025,-0.73431,"car",19,4.39,0.026811652,0.25628936,1,1,1952.68,1.80805
"589","four-wheeled vehicle","car",17,17,1,2.878,0.347463516,347.4635163,-0.44559,"car",19,4.39,0.026811652,0.25628936,1,1,1952.68,1.80805
"590","four-wheeled vehicle","car",65,37,1,2.673,0.374111485,374.1114852,-0.44824,"car",19,4.39,0.026811652,0.25628936,1,1,1952.68,1.80805
"591","four-wheeled vehicle","car",38,30,1,2.611,0.382995021,382.9950211,-0.01258,"car",19,4.39,0.026811652,0.25628936,1,1,1952.68,1.80805
"592","four-wheeled vehicle","car",59,6,1,5.388,0.185597624,185.5976244,0.22553,"car",19,4.39,0.026811652,0.25628936,1,1,1952.68,1.80805
"593","four-wheeled vehicle","car",77,7,1,1.864,0.536480687,536.4806867,-0.63629,"car",19,4.39,0.026811652,0.25628936,1,1,1952.68,1.80805
"594","four-wheeled vehicle","car",20,15,1,3.251,0.307597662,307.5976623,0.59518,"car",19,4.39,0.026811652,0.25628936,1,1,1952.68,1.80805
"595","four-wheeled vehicle","car",56,3,1,1.466,0.68212824,682.1282401,-0.69934,"car",19,4.39,0.026811652,0.25628936,1,1,1952.68,1.80805
"596","four-wheeled vehicle","car",29,27,1,2.095,0.477326969,477.326969,-0.54586,"car",19,4.39,0.026811652,0.25628936,1,1,1952.68,1.80805
"597","fraction","half",75,23,2,30.308,0.032994589,32.99458889,5.78944,"half",12,4.01,0.077625835,0.445890821,1,1,637.9,1.2303
"598","fraction","third",69,2,2,8.143,0.122804863,122.8048631,2.20879,"third",9,3.58,0.022142114,0.437132184,1.6,1,637.9,1.2303
"599","fraction","third",60,12,2,7.971,0.125454774,125.4547736,1.36295,"third",9,3.58,0.022142114,0.437132184,1.6,1,637.9,1.2303
"600","fraction","one quarter",72,31,2,3.09,0.323624595,323.6245955,-0.16029,"quarter",2,5.203597364,0.179039605,0.538784509,2.95,3,637.9,1.2303
"601","fraction","two fifths",33,29,2,22.108,0.045232495,45.23249502,3.41846,"two fifths",3,NA,NA,0.555606048,NA,NA,637.9,1.2303
"602","fraction","half",78,4,2,7.546,0.132520541,132.5205407,2.50558,"half",12,4.01,0.077625835,0.445890821,1,1,637.9,1.2303
"603","fraction","quarter",48,33,2,3.521,0.284010224,284.0102244,1.10993,"quarter",11,3.12,0.179039605,0.334450965,1.95,2,637.9,1.2303
"604","fraction","quarter",21,16,2,3.868,0.258531541,258.5315408,8e-04,"quarter",11,3.12,0.179039605,0.334450965,1.95,2,637.9,1.2303
"605","fraction","half",36,19,2,3.126,0.319897633,319.8976328,0.08788,"half",12,4.01,0.077625835,0.445890821,1,1,637.9,1.2303
"606","fraction","half",42,39,2,1.632,0.612745098,612.745098,-0.71425,"half",12,4.01,0.077625835,0.445890821,1,1,637.9,1.2303
"607","fraction","half",63,8,2,2.094,0.477554919,477.5549188,-0.57535,"half",12,4.01,0.077625835,0.445890821,1,1,637.9,1.2303
"608","fraction","half",51,20,2,4.666,0.214316331,214.3163309,0.96358,"half",12,4.01,0.077625835,0.445890821,1,1,637.9,1.2303
"609","fraction","half",54,20,2,19.989,0.050027515,50.02751513,4.7706,"half",12,4.01,0.077625835,0.445890821,1,1,637.9,1.2303
"610","fruit","banana",21,27,2,3.207,0.311817898,311.8178983,-0.38776,"banana",16,2.74,0.016953999,0.297009927,2.5,3,583.55,1.2303
"611","fruit","apple",39,15,2,1.703,0.58719906,587.1990605,-0.61207,"apple",17,3.08,0.021695254,0.248293724,1.75,2,583.55,1.2303
"612","fruit","apple",57,36,2,1.365,0.732600733,732.6007326,-1.22005,"apple",17,3.08,0.021695254,0.248293724,1.75,2,583.55,1.2303
"613","fruit","guava",45,16,2,2.36,0.423728814,423.7288136,-0.73659,"guava",5,1.15,0.005287322,0.669156333,2.7,2,583.55,1.2303
"614","fruit","peach",54,39,2,2.209,0.452693526,452.6935265,-0.7485,"peach",6,2.51,0.017327601,0.392770017,1.25,1,583.55,1.2303
"615","fruit","apple",60,15,2,2.47,0.4048583,404.8582996,-0.71266,"apple",17,3.08,0.021695254,0.248293724,1.75,2,583.55,1.2303
"616","fruit","apple",72,3,2,2.036,0.491159136,491.1591356,-0.54349,"apple",17,3.08,0.021695254,0.248293724,1.75,2,583.55,1.2303
"617","fruit","apple",18,22,2,3.182,0.314267756,314.2677561,-0.42207,"apple",17,3.08,0.021695254,0.248293724,1.75,2,583.55,1.2303
"618","fruit","apples",78,18,2,2.136,0.468164794,468.164794,-0.97288,"apple",5,2.63,0.021695254,0.262017507,1.9,2,583.55,1.2303
"619","fruit","orange",33,34,2,1.636,0.611246944,611.2469438,-0.88158,"orange",11,3.06,0.01584066,0.265009013,1.95,2,583.55,1.2303
"620","fruit","apple",36,10,2,1.553,0.643915003,643.9150032,-0.99249,"apple",17,3.08,0.021695254,0.248293724,1.75,2,583.55,1.2303
"621","fruit","apple",27,22,2,1.513,0.660938533,660.9385327,-0.84108,"apple",17,3.08,0.021695254,0.248293724,1.75,2,583.55,1.2303
"622","fruit","apple",51,4,2,1.098,0.910746812,910.7468124,-1.04627,"apple",17,3.08,0.021695254,0.248293724,1.75,2,583.55,1.2303
"623","fruit","apple",48,21,2,2.776,0.360230548,360.2305476,0.3407,"apple",17,3.08,0.021695254,0.248293724,1.75,2,583.55,1.2303
"624","fruit","apples",69,32,2,1.822,0.54884742,548.8474204,-0.66052,"apple",5,2.63,0.021695254,0.262017507,1.9,2,583.55,1.2303
"625","fruit","apple",42,33,2,1.367,0.731528895,731.5288954,-0.97507,"apple",17,3.08,0.021695254,0.248293724,1.75,2,583.55,1.2303
"626","fruit","apple",30,18,2,2.054,0.486854917,486.8549172,-0.47337,"apple",17,3.08,0.021695254,0.248293724,1.75,2,583.55,1.2303
"627","fruit","apple",75,11,2,1.887,0.529941706,529.9417064,-0.33835,"apple",17,3.08,0.021695254,0.248293724,1.75,2,583.55,1.2303
"628","fruit","orange",63,4,2,5.164,0.193648335,193.6483346,1.06846,"orange",11,3.06,0.01584066,0.265009013,1.95,2,583.55,1.2303
"629","fruit","apple",24,22,2,4.071,0.245639892,245.6398919,-0.37066,"apple",17,3.08,0.021695254,0.248293724,1.75,2,583.55,1.2303
"630","fuel","petrol",32,31,1,2.482,0.402900886,402.9008864,-0.09601,"petrol",18,1.91,0.024488507,0.244186005,2.35,2,581.9,1.2303
"631","fuel","petrol",59,26,1,1.522,0.657030223,657.0302234,-0.96714,"petrol",18,1.91,0.024488507,0.244186005,2.35,2,581.9,1.2303
"632","fuel","petrol",71,14,1,1.636,0.611246944,611.2469438,-0.86149,"petrol",18,1.91,0.024488507,0.244186005,2.35,2,581.9,1.2303
"633","fuel","petrol",26,23,1,1.844,0.542299349,542.2993492,-0.80052,"petrol",18,1.91,0.024488507,0.244186005,2.35,2,581.9,1.2303
"634","fuel","petrol",65,21,1,4.026,0.248385494,248.3854943,0.37737,"petrol",18,1.91,0.024488507,0.244186005,2.35,2,581.9,1.2303
"635","fuel","biofuel",29,36,1,4.315,0.23174971,231.7497103,0.68771,"biofuel",2,NA,0.03965765,0.592554383,NA,NA,581.9,1.2303
"636","fuel","petrol",35,32,1,1.539,0.64977258,649.7725796,-0.76771,"petrol",18,1.91,0.024488507,0.244186005,2.35,2,581.9,1.2303
"637","fuel","petrol",17,37,1,2.837,0.352485019,352.4850194,-0.46132,"petrol",18,1.91,0.024488507,0.244186005,2.35,2,581.9,1.2303
"638","fuel","petrol",20,33,1,2.198,0.454959054,454.9590537,-0.42448,"petrol",18,1.91,0.024488507,0.244186005,2.35,2,581.9,1.2303
"639","fuel","gasoline",56,30,1,1.43,0.699300699,699.3006993,-0.72604,"gasoline",3,2.52,0.026865083,0.541961591,2.8,3,581.9,1.2303
"640","fuel","petrol",38,6,1,3.078,0.32488629,324.8862898,0.26574,"petrol",18,1.91,0.024488507,0.244186005,2.35,2,581.9,1.2303
"641","fuel","petrol",50,31,1,1.403,0.712758375,712.7583749,-1.1161,"petrol",18,1.91,0.024488507,0.244186005,2.35,2,581.9,1.2303
"642","fuel","diesel",47,37,1,3.468,0.288350634,288.3506344,-0.28764,"diesel",16,2.13,0.068631307,0.325751466,1.9,2,581.9,1.2303
"643","fuel","petrol",23,37,1,1.807,0.553403431,553.4034311,-0.6838,"petrol",18,1.91,0.024488507,0.244186005,2.35,2,581.9,1.2303
"644","fuel","diesel",77,34,1,4.171,0.239750659,239.7506593,0.65631,"diesel",16,2.13,0.068631307,0.325751466,1.9,2,581.9,1.2303
"645","fuel","food",62,37,1,3.816,0.262054507,262.0545073,0.05602,"food",3,3.9,0.208181868,0.313672369,1.15,1,581.9,1.2303
"646","fuel","diesel",44,39,1,3.014,0.331785003,331.7850033,-0.51841,"diesel",16,2.13,0.068631307,0.325751466,1.9,2,581.9,1.2303
"647","fuel","petrol",53,39,1,3.388,0.295159386,295.1593861,0.37406,"petrol",18,1.91,0.024488507,0.244186005,2.35,2,581.9,1.2303
"648","fuel","gasoline",68,1,1,4.648,0.215146299,215.1462995,0.40764,"gasoline",3,2.52,0.026865083,0.541961591,2.8,3,581.9,1.2303
"649","fuel","diesel",74,38,1,1.873,0.53390283,533.9028297,-0.59604,"diesel",16,2.13,0.068631307,0.325751466,1.9,2,581.9,1.2303
"650","furniture","chair",71,10,1,1.909,0.523834468,523.8344683,-0.68037,"chair",15,3.4,0.028497398,0.271288197,1.5,1,750.47,1.2303
"651","furniture","chair",56,2,1,1.29,0.775193798,775.1937984,-0.82986,"chair",15,3.4,0.028497398,0.271288197,1.5,1,750.47,1.2303
"652","furniture","chair",59,4,1,3.713,0.269323997,269.3239968,-0.29121,"chair",15,3.4,0.028497398,0.271288197,1.5,1,750.47,1.2303
"653","furniture","chair",29,35,1,1.711,0.584453536,584.4535359,-0.75924,"chair",15,3.4,0.028497398,0.271288197,1.5,1,750.47,1.2303
"654","furniture","chair",35,39,1,1.698,0.588928151,588.9281508,-0.68804,"chair",15,3.4,0.028497398,0.271288197,1.5,1,750.47,1.2303
"655","furniture","table",23,1,1,1.588,0.629722922,629.7229219,-1.0043,"table",17,3.73,0.03931544,0.279573998,1.5,2,750.47,1.2303
"656","furniture","chair",38,19,1,1.571,0.636537237,636.5372374,-0.63237,"chair",15,3.4,0.028497398,0.271288197,1.5,1,750.47,1.2303
"657","furniture","table",50,2,1,2.642,0.378501136,378.5011355,-0.60996,"table",17,3.73,0.03931544,0.279573998,1.5,2,750.47,1.2303
"658","furniture","table",65,4,1,1.861,0.537345513,537.3455132,-0.94372,"table",17,3.73,0.03931544,0.279573998,1.5,2,750.47,1.2303
"659","furniture","sofa",68,18,1,3.921,0.25503698,255.0369804,-0.06838,"sofa",12,2.48,0.016984422,0.298956133,1.75,2,750.47,1.2303
"660","furniture","chair",74,2,1,1.585,0.630914826,630.9148265,-0.87431,"chair",15,3.4,0.028497398,0.271288197,1.5,1,750.47,1.2303
"661","furniture","chair",53,4,1,1.518,0.658761528,658.7615283,-0.93925,"chair",15,3.4,0.028497398,0.271288197,1.5,1,750.47,1.2303
"662","furniture","sofa",44,37,1,3.022,0.330906684,330.9066843,-0.51652,"sofa",12,2.48,0.016984422,0.298956133,1.75,2,750.47,1.2303
"663","furniture","sofa",62,12,1,2.07,0.483091787,483.0917874,-0.53411,"sofa",12,2.48,0.016984422,0.298956133,1.75,2,750.47,1.2303
"664","furniture","sofa",32,19,1,1.486,0.67294751,672.9475101,-1.0168,"sofa",12,2.48,0.016984422,0.298956133,1.75,2,750.47,1.2303
"665","furniture","sofa",47,32,1,2.849,0.351000351,351.000351,-0.67597,"sofa",12,2.48,0.016984422,0.298956133,1.75,2,750.47,1.2303
"666","furniture","table",17,20,1,2.24,0.446428571,446.4285714,-0.69026,"table",17,3.73,0.03931544,0.279573998,1.5,2,750.47,1.2303
"667","furniture","chair",77,21,1,2.166,0.461680517,461.6805171,-0.46708,"chair",15,3.4,0.028497398,0.271288197,1.5,1,750.47,1.2303
"668","furniture","table",20,13,1,2.159,0.463177397,463.1773969,-0.46224,"table",17,3.73,0.03931544,0.279573998,1.5,2,750.47,1.2303
"669","furniture","desks",26,29,1,2.667,0.374953131,374.9531309,-0.42352,"desk",2,1.74,0.059847618,0.419263254,1.8,1,750.47,1.2303
"670","gardening tool","spade",60,38,2,3.426,0.291885581,291.8855809,-0.35195,"spade",13,2.08,0.039135116,0.313757981,1.25,1,1252.87,0.596
"671","gardening tool","shovel",57,31,2,3.301,0.302938503,302.9385035,0.14437,"shovel",13,2.54,0.026736219,0.315024327,1.8,2,1252.87,0.596
"672","gardening tool","shovel",72,4,2,2.171,0.460617227,460.6172271,-0.4944,"shovel",13,2.54,0.026736219,0.315024327,1.8,2,1252.87,0.596
"673","gardening tool","spade",24,5,2,1.893,0.528262018,528.262018,-1.00281,"spade",13,2.08,0.039135116,0.313757981,1.25,1,1252.87,0.596
"674","gardening tool","shovel",39,5,2,1.547,0.646412411,646.4124111,-0.67454,"shovel",13,2.54,0.026736219,0.315024327,1.8,2,1252.87,0.596
"675","gardening tool","spade",36,35,2,1.471,0.679809653,679.8096533,-1.0488,"spade",13,2.08,0.039135116,0.313757981,1.25,1,1252.87,0.596
"676","gardening tool","rake",21,5,2,5.919,0.168947457,168.9474573,1.20648,"rake",11,2.18,0.022860948,0.323978989,1,1,1252.87,0.596
"677","gardening tool","spade",33,5,2,1.916,0.521920668,521.9206681,-0.82277,"spade",13,2.08,0.039135116,0.313757981,1.25,1,1252.87,0.596
"678","gardening tool","shovel",51,15,2,1.554,0.643500644,643.5006435,-0.7894,"shovel",13,2.54,0.026736219,0.315024327,1.8,2,1252.87,0.596
"679","gardening tool","fork",54,9,2,2.755,0.362976407,362.9764065,-0.57902,"fork",6,2.65,0.087562731,0.293851192,1.15,1,1252.87,0.596
"680","gardening tool","shovel",75,13,2,3.778,0.264690312,264.6903123,0.06936,"shovel",13,2.54,0.026736219,0.315024327,1.8,2,1252.87,0.596
"681","gardening tool","spade",27,7,2,2.38,0.420168067,420.1680672,-0.60086,"spade",13,2.08,0.039135116,0.313757981,1.25,1,1252.87,0.596
"682","gardening tool","spade",42,19,2,1.212,0.825082508,825.0825083,-1.12762,"spade",13,2.08,0.039135116,0.313757981,1.25,1,1252.87,0.596
"683","gardening tool","spade",18,7,2,2.669,0.374672162,374.6721619,-0.5958,"spade",13,2.08,0.039135116,0.313757981,1.25,1,1252.87,0.596
"684","gardening tool","shovel",69,30,2,2.577,0.388048118,388.048118,-0.3178,"shovel",13,2.54,0.026736219,0.315024327,1.8,2,1252.87,0.596
"685","gardening tool","rake",48,16,2,1.586,0.630517024,630.517024,-0.88801,"rake",11,2.18,0.022860948,0.323978989,1,1,1252.87,0.596
"686","gardening tool","rake",30,14,2,3.329,0.300390508,300.3905077,0.08513,"rake",11,2.18,0.022860948,0.323978989,1,1,1252.87,0.596
"687","gardening tool","shovel",78,32,2,3.921,0.25503698,255.0369804,0.17482,"shovel",13,2.54,0.026736219,0.315024327,1.8,2,1252.87,0.596
"688","gemstone","ruby",29,30,1,3.122,0.320307495,320.3074952,0.02481,"ruby",13,2.78,0.035702117,0.617586423,1.7,2,1327.67,1.3687
"689","gemstone","emerald",65,9,1,5.548,0.180245133,180.2451334,1.30611,"emerald",7,2.12,0.033812525,0.488541133,2.9,3,1327.67,1.3687
"690","gemstone","ruby",17,9,1,2.888,0.346260388,346.2603878,-0.44176,"ruby",13,2.78,0.035702117,0.617586423,1.7,2,1327.67,1.3687
"691","gemstone","ruby",59,38,1,4.567,0.21896212,218.9621196,-0.02775,"ruby",13,2.78,0.035702117,0.617586423,1.7,2,1327.67,1.3687
"692","gemstone","quartz",23,16,1,1.828,0.547045952,547.0459519,-0.65307,"quartz",2,1.45,0.008695113,0.476130676,1.8,1,1327.67,1.3687
"693","gemstone","ruby",38,1,1,6.034,0.165727544,165.7275439,2.02738,"ruby",13,2.78,0.035702117,0.617586423,1.7,2,1327.67,1.3687
"694","gemstone","ruby",35,2,1,1.689,0.592066311,592.0663114,-0.69255,"ruby",13,2.78,0.035702117,0.617586423,1.7,2,1327.67,1.3687
"695","gemstone","pearl",44,27,1,18.173,0.055026688,55.02668794,3.07425,"pearl",5,2.9,0.027795618,0.581237305,1.35,1,1327.67,1.3687
"696","gemstone","pearl",74,3,1,3.726,0.268384326,268.3843264,1.19432,"pearl",5,2.9,0.027795618,0.581237305,1.35,1,1327.67,1.3687
"697","gemstone","opal",68,38,1,5.851,0.170910955,170.9109554,1.19534,"opal",6,1.72,0.022516448,0.469380313,1.85,2,1327.67,1.3687
"698","gemstone","sapphire",32,25,1,4.232,0.236294896,236.294896,1.52183,"sapphire",12,1.79,0.017924548,0.530712848,2.4,2,1327.67,1.3687
"699","gemstone","opal",20,23,1,2.479,0.403388463,403.3884631,-0.15238,"opal",6,1.72,0.022516448,0.469380313,1.85,2,1327.67,1.3687
"700","gemstone","pearl",53,25,1,4.427,0.225886605,225.8866049,1.10376,"pearl",5,2.9,0.027795618,0.581237305,1.35,1,1327.67,1.3687
"701","gemstone","amber",26,14,1,3.037,0.329272308,329.2723082,-0.25403,"amber",2,2.68,0.049510905,0.597258839,1.8,2,1327.67,1.3687
"702","gemstone","ruby",47,2,1,3.881,0.25766555,257.6655501,-0.02855,"ruby",13,2.78,0.035702117,0.617586423,1.7,2,1327.67,1.3687
"703","gemstone","emerald",62,5,1,3.241,0.308546745,308.5467448,-0.13833,"emerald",7,2.12,0.033812525,0.488541133,2.9,3,1327.67,1.3687
"704","gemstone","amber",56,35,1,4.597,0.217533174,217.5331738,1.62253,"amber",2,2.68,0.049510905,0.597258839,1.8,2,1327.67,1.3687
"705","geometric shape","square",53,20,1,3.019,0.331235508,331.2355084,0.11491,"square",19,3.21,0.012766792,0.271187446,1.8,1,1384.49,0.596
"706","geometric shape","circle",65,29,1,3.697,0.270489586,270.4895862,0.17662,"circle",16,3.04,0.033720793,0.263950721,1.85,2,1384.49,0.596
"707","geometric shape","square",47,31,1,4.55,0.21978022,219.7802198,0.39114,"square",19,3.21,0.012766792,0.271187446,1.8,1,1384.49,0.596
"708","geometric shape","square",38,10,1,2.429,0.411692054,411.6920543,-0.12104,"square",19,3.21,0.012766792,0.271187446,1.8,1,1384.49,0.596
"709","geometric shape","square",56,29,1,1.284,0.778816199,778.8161994,-0.83431,"square",19,3.21,0.012766792,0.271187446,1.8,1,1384.49,0.596
"710","geometric shape","square",77,39,1,4.445,0.224971879,224.9718785,0.80983,"square",19,3.21,0.012766792,0.271187446,1.8,1,1384.49,0.596
"711","geometric shape","triangle",62,38,1,2.627,0.380662352,380.6623525,-0.34585,"triangle",18,2.34,0.058570389,0.332371258,3.45,3,1384.49,0.596
"712","geometric shape","square",74,32,1,2.241,0.446229362,446.2293619,-0.24048,"square",19,3.21,0.012766792,0.271187446,1.8,1,1384.49,0.596
"713","geometric shape","circle",20,38,1,4.255,0.235017626,235.0176263,1.56738,"circle",16,3.04,0.033720793,0.263950721,1.85,2,1384.49,0.596
"714","geometric shape","circle",68,10,1,2.758,0.362581581,362.5815809,-0.82989,"circle",16,3.04,0.033720793,0.263950721,1.85,2,1384.49,0.596
"715","geometric shape","square",17,5,1,1.711,0.584453536,584.4535359,-0.89312,"square",19,3.21,0.012766792,0.271187446,1.8,1,1384.49,0.596
"716","geometric shape","square",23,36,1,2.299,0.434971727,434.9717268,0.03621,"square",19,3.21,0.012766792,0.271187446,1.8,1,1384.49,0.596
"717","geometric shape","hexagon",35,14,1,3.38,0.295857988,295.8579882,0.15469,"hexagon",11,0.7,0.058218421,0.54025186,3.85,3,1384.49,0.596
"718","geometric shape","square",71,29,1,4.024,0.248508946,248.5089463,0.72283,"square",19,3.21,0.012766792,0.271187446,1.8,1,1384.49,0.596
"719","geometric shape","triangle",32,14,1,2.687,0.372162263,372.1622627,0.09351,"triangle",18,2.34,0.058570389,0.332371258,3.45,3,1384.49,0.596
"720","geometric shape","circle",26,19,1,12.146,0.082331632,82.33163181,3.91862,"circle",16,3.04,0.033720793,0.263950721,1.85,2,1384.49,0.596
"721","geometric shape","triangle",29,20,1,2.551,0.392003136,392.003136,-0.29248,"triangle",18,2.34,0.058570389,0.332371258,3.45,3,1384.49,0.596
"722","geometric shape","triangle",50,11,1,4.768,0.209731544,209.7315436,0.25853,"triangle",18,2.34,0.058570389,0.332371258,3.45,3,1384.49,0.596
"723","geometric shape","square",44,31,1,21.919,0.045622519,45.62251928,3.96204,"square",19,3.21,0.012766792,0.271187446,1.8,1,1384.49,0.596
"724","green vegetable","broccoli",46,16,3,1.928,0.518672199,518.6721992,-0.48569,"broccoli",16,2.07,0.080076621,0.38562503,2.8,3,1398.94,0.596
"725","green vegetable","cucumber",31,29,3,3.065,0.326264274,326.2642741,-0.08049,"cucumber",11,2.01,0.086774589,0.379470742,4.2,3,1398.94,0.596
"726","green vegetable","cabbage",40,39,3,1.822,0.54884742,548.8474204,-0.63153,"cabbage",9,2.17,0.095371836,0.33624918,2.55,2,1398.94,0.596
"727","green vegetable","cabbage",55,34,3,2.968,0.336927224,336.9272237,0.13968,"cabbage",9,2.17,0.095371836,0.33624918,2.55,2,1398.94,0.596
"728","green vegetable","brussels sprouts",58,13,3,2.128,0.469924812,469.924812,-0.32876,"brussels sprouts",3,2.26149035,0.096368631,0.297683977,NA,3,1398.94,0.596
"729","green vegetable","lettuce",64,25,3,1.577,0.634115409,634.115409,-1.30234,"lettuce",12,2.24,0.092695298,0.363598444,1.8,2,1398.94,0.596
"730","green vegetable","courgette",37,17,3,4.528,0.220848057,220.8480565,0.13719,"zucchini",7,0.3,0.08355714,0.452518115,NA,2,1398.94,0.596
"731","green vegetable","cucumber",80,10,3,2.979,0.335683115,335.6831151,0.54518,"cucumber",11,2.01,0.086774589,0.379470742,4.2,3,1398.94,0.596
"732","green vegetable","broccoli",76,30,3,1.863,0.536768653,536.7686527,-0.64856,"broccoli",16,2.07,0.080076621,0.38562503,2.8,3,1398.94,0.596
"733","green vegetable","broccoli",25,12,3,3.496,0.28604119,286.0411899,0.30765,"broccoli",16,2.07,0.080076621,0.38562503,2.8,3,1398.94,0.596
"734","green vegetable","celery",28,15,3,2.741,0.364830354,364.8303539,-0.23912,"celery",5,1.98,0.108490983,0.432482677,1.95,3,1398.94,0.596
"735","green vegetable","peas",79,31,3,8.112,0.123274162,123.2741617,1.5855,"pea",12,2.38,0.093852685,0.314701207,1,1,1398.94,0.596
"736","green vegetable","broccoli",19,12,3,1.572,0.636132316,636.1323155,-0.766,"broccoli",16,2.07,0.080076621,0.38562503,2.8,3,1398.94,0.596
"737","green vegetable","beans",70,21,3,4.342,0.230308614,230.3086135,0.30522,"bean",3,2.87,0.087981514,0.283702163,1.3,1,1398.94,0.596
"738","green vegetable","kale",49,15,3,3.332,0.300120048,300.120048,0.13739,"kale",7,1.46,0.111089213,0.493925238,1,1,1398.94,0.596
"739","green vegetable","peas",52,3,3,2.515,0.397614314,397.6143141,-0.71334,"pea",12,2.38,0.093852685,0.314701207,1,1,1398.94,0.596
